File: db_ml.csv
Compound;Bandgap (eV);H2 production rate (umol.g-1.h-1) ;Bandgap (eV);Incident light cut-off (nm);Particle size (nm);Radiation (W);Specific Surface Area m2.g-1;Catalyst amount (g);Co-catalyst;Co-catalyst type;Reaction;Reaction solution;Reaction solution concentration;Carbon source;Sacrificial agent;Sacrificial agent source;Preparation method;Calcination temperature (°C);Calcination time (h);Reference
SrTiO3;Bandgap (eV);3400;2.97;360;92;300;176;0.02;Pt;H2PtCl6;Photoreform;Water / methanol;(8:2 v/v);CH3OH;TRUE;CH3OH;Polymer-assisted sol–gel method (followed by solvothermal treatment) ;400;3;https://doi.org/10.1016/j.apcatb.2018.05.036
LaNi0.5Cu0.5O3;Bandgap (eV);1166;2.47;400;-;125;-;0.1;FALSE;-;Photoreform;Water / formaldehyde;(7:1 v/v);HCHO;TRUE;HCHO;Citric Acid complexing method;800;5;https://doi.org/10.1016/j.ijhydene.2010.08.140
LaKNaTaO5;Bandgap (eV);110;2;420;100;300;-;0.3;Rh;RhCl3·3H2O;Photoreform;Water / methanol;(8:2 v/v);CH3OH;TRUE;CH3OH;Nitridation;600;3;https://doi.org/10.1002/anie.201906081
LaTaON2;Bandgap (eV);110;2;420;100;300;-;0.5;Rh;RhCl3·3H2O;Photoreform;Water / methanol;(8:2 v/v);CH3OH;TRUE;CH3OH;Nitridation;600;3;https://doi.org/10.1002/anie.201906081
K2LaTa2O6N;Bandgap (eV);320;2.5;400;250;300;-;0.05;Pt;PtOx/H-Cs-WO3 ;Photocatalysis;Water;-;-;TRUE;NaI solution;ion-exchange reaction;400;48;https://doi.org/10.1002/anie.202002534
Ba2FeNbO6;Bandgap (eV);143;2.29;420;100;300;5.57;0.05;Pt;Pt nanoparticles;Photoreform;Water / methanol;(75:25 v/v);CH3OH;FALSE;-;salt-assisted solid-state reaction;800;5;https://doi.org/10.1002/aenm.201600932
LaTiO2N;Bandgap (eV);3680;2.1;420;1000;300;16;0.2;Co;Co(NO3)2·6H2O;Photocatalysis;Water;-;-;TRUE;AgNO3;thermal ammonalysis process;950;15;https://doi.org/10.1021/ja301726c
RbLaTa2O6.77N0.15;Bandgap (eV);152;2.07;420;500;500;-;0.05;Pt;H2PtCl6 ;Photocatalysis;Water;-;-;TRUE;Na2SO3;Conventional solid-state reaction;800;5;https://doi.org/10.1021/acsnano.7b06131
LiCuTa3O9;Bandgap (eV);0.7;2.48;420;300;300;-;0.2;Rh;RhCl3·3H2O;Photocatalysis;Water;-;-;TRUE;Na2SO3 and Na2S;solid-state reaction;1000;10;10.1002/aenm.201801660
LaMg1/3Ta2/3O2N;Bandgap (eV);5;1.9;300;100;300;-;0.2;Rh and  Cr;RhCl3·3H2O and Cr(NO3)3·9H2O;Photocatalysis;Water;-;-;FALSE;-;Citric Acid complexing method;800;5;https://doi.org/10.1002/anie.201410961
LaMg1/3Ta2/3O2N;Bandgap (eV);5;2.0;300;100;300;-;0.2;Rh and  Cr;RhCl3·3H2O and Cr(NO3)3·9H2O;Photocatalysis;Water;-;-;FALSE;-;Citric Acid complexing method;800;5;https://doi.org/10.1002/anie.201410961
LaMg1/3Ta2/3O2N;Bandgap (eV);5;2.1;300;100;300;-;0.2;Rh and  Cr;RhCl3·3H2O and Cr(NO3)3·9H2O;Photocatalysis;Water;-;-;FALSE;-;Citric Acid complexing method;800;5;https://doi.org/10.1002/anie.201410961
Bi4NbO8Br;Bandgap (eV);83.3;2.44;420;1000;300;-;0.3;Pt;H2PtCl6;Photoreform;Water / glycerol;(8:2 v/v);C3H8O3;TRUE;C3H803;solid-state reaction;800;24;https://doi.org/10.1039/C8CY00959G
Cs2AgBiBr6;Bandgap (eV);48.9;1.65;420;20000;300;-;0.2;Graphene;CxOy;Photocatalysis;HBr / H3PO2;(5 : 1 v/v);-;FALSE;-;Acidic-solution synthesis;85;12;https://doi.org/10.1016/j.apcatb.2019.118399
(CH3)2NH2SnI3;Bandgap (eV);3.2;1.3;420;-;300;-;0.2;FALSE;-;Photocatalysis;Water;-;-;FALSE;-;Single-crystal growth;200;8;https://doi.org/10.1002/anie.201810481
CH3NH3PbI3;Bandgap (eV);785.9;1.51;420;180;150;-;0.0025;Co;CoP;Photocatalysis;HI;-;-;FALSE;-;Antisolvent + in situ photosynthesis;50;3;https://doi.org/10.1002/adfm.202001478
CH3NH3PbI3-xlx;Bandgap (eV);2604.8;2;420;50000;300;-;0.25;Pt;H2PtCl6·6H2O;Photocatalysis;HI;-;-;FALSE;-;Light-assisted halide exchange;15;1.5;https://doi.org/10.1021/acscatal.8b02374
CsPbBr3-xIx;Bandgap (eV);1120;2.17;420;10000;300;-;0.20;Pt;H2PtCl6·6H2O;Photocatalysis;Water / HBr;-;-;FALSE;-;Light-assisted halide exchange;15;1;https://doi.org/10.1016/j.apcatb.2019.01.019
KCuTa3O9;Bandgap (eV);56.0;2.73;420;1000;300;-;0.05;Pt;H2PtCl6·6H2O;Photocatalysis;Water / Na2S / Na2SO3;-;-;FALSE;-;solid-state reaction;1100;24;https://doi.org/10.1016/j.jallcom.2023.170635
KCuFe0.1Ta3O9;Bandgap (eV);77.6;2.63;420;1000;300;-;0.05;Pt;H2PtCl6·6H2O;Photocatalysis;Water / Na2S / Na2SO3;-;-;FALSE;-;solid-state reaction;1100;24;https://doi.org/10.1016/j.jallcom.2023.170635
KCuFe0.2Ta3O9;Bandgap (eV);110.2;2.51;420;1000;300;-;0.05;Pt;H2PtCl6·6H2O;Photocatalysis;Water / Na2S / Na2SO3;-;-;FALSE;-;solid-state reaction;1100;24;https://doi.org/10.1016/j.jallcom.2023.170635
KCuFe0.3Ta3O9;Bandgap (eV);65.6;2.41;420;1000;300;-;0.05;Pt;H2PtCl6·6H2O;Photocatalysis;Water / Na2S / Na2SO3;-;-;FALSE;-;solid-state reaction;1100;24;https://doi.org/10.1016/j.jallcom.2023.170635
K2Nb2O6;Bandgap (eV);0;3.98;400;25;300;47.9;0.02;Pt;H2PtCl6·6H2O;Photoreform;Water / methanol;(4 : 1 v/v);CH3OH;TRUE;CH3OH;solid-state reaction;-;-;https://doi.org/10.1002/sstr.202200105
K2Nb2O6-xNx;Bandgap (eV);20.4;2.86;400;25;300;80.5;0.03;Pt;H2PtCl6·6H2O;Photoreform;Water / methanol;(4 : 1 v/v);CH3OH;TRUE;CH3OH;hydrothermal + solid-state reaction;400;6;https://doi.org/10.1002/sstr.202200105
K2Nb2O6-xNx;Bandgap (eV);9.27;3.05;400;25;300;79.5;0.04;Pt;H2PtCl6·6H2O;Photoreform;Water / methanol;(4 : 1 v/v);CH3OH;TRUE;CH3OH;hydrothermal + solid-state reaction;400;4;https://doi.org/10.1002/sstr.202200105
K2Nb2O6-xNx;Bandgap (eV);10.74;2.90;400;25;300;80.1;0.05;Pt;H2PtCl6·6H2O;Photoreform;Water / methanol;(4 : 1 v/v);CH3OH;TRUE;CH3OH;hydrothermal + solid-state reaction;400;8;https://doi.org/10.1002/sstr.202200105
AgTaO3;Bandgap (eV);167.38;3.44;254;72.6;-;1.9;0.2;CdS;CdS;Photocatalysis;Water / Na2SO3;-;-;FALSE;-;solid-state reaction;900;24;https://doi.org/10.1016/j.jphotochem.2018.03.021
AgNbO3;Bandgap (eV);54.17;2.78;254;156.1;-;2.3;0.2;CdS;CdS;Photocatalysis;Water / Na2SO3;-;-;FALSE;-;solid-state reaction;850;24;https://doi.org/10.1016/j.jphotochem.2018.03.021
AgVO3;Bandgap (eV);1.29;1.97;254;87.3;-;1.1;0.2;CdS;CdS;Photocatalysis;Water / Na2SO3;-;-;FALSE;-;solid-state reaction;300;24;https://doi.org/10.1016/j.jphotochem.2018.03.021
SrTiO3;Bandgap (eV);0;3.31;420;100;300;4.27;0.05;Pt;H2PtCl6·6H2O;Photoreform;Water / methanol;(3 : 1 v/v);CH3OH;TRUE;CH3OH;solid-state reaction;800;5;https://doi.org/10.1002/aenm.201600932
SrTiO3-Ba2FeNbO6;Bandgap (eV);80;3.08;420;100;300;4.96;0.05;Pt;H2PtCl6·6H2O;Photoreform;Water / methanol;(3 : 1 v/v);CH3OH;TRUE;CH3OH;solid-state reaction;800;5;https://doi.org/10.1002/aenm.201600932
SrTiO3-Ba2FeNbO6;Bandgap (eV);143;2.92;420;100;300;5.09;0.05;Pt;H2PtCl6·6H2O;Photoreform;Water / methanol;(3 : 1 v/v);CH3OH;TRUE;CH3OH;solid-state reaction;800;5;https://doi.org/10.1002/aenm.201600932
SrTiO3-Ba2FeNbO6;Bandgap (eV);95;2.76;420;100;300;5.57;0.05;Pt;H2PtCl6·6H2O;Photoreform;Water / methanol;(3 : 1 v/v);CH3OH;TRUE;CH3OH;solid-state reaction;800;5;https://doi.org/10.1002/aenm.201600932
Ba2FeNbO6;Bandgap (eV);0;2.29;420;100;300;5.54;0.05;Pt;H2PtCl6·6H2O;Photoreform;Water / methanol;(3 : 1 v/v);CH3OH;TRUE;CH3OH;solid-state reaction;800;5;https://doi.org/10.1002/aenm.201600932
CdSLa2Ti2O7;Bandgap (eV);51.31;2.28;400;600;500;-;0.1;Pt;H2PtCl6·6H2O;Photoreform;Water / methanol;(3 : 1 v/v);CH3OH;TRUE;CH3OH;hydrothermal + chemical bath deposition;-;-;http://dx.doi.org/10.1002/cplu.201600351
La2Ti2O7;Bandgap (eV);10.26;3.94;400;600;500;-;0.1;Pt;H2PtCl6·6H2O;Photoreform;Water / methanol;(3 : 1 v/v);CH3OH;TRUE;CH3OH;hydrothermal + chemical bath deposition;-;-;http://dx.doi.org/10.1002/cplu.201600351
La2NiO4TiO2;Bandgap (eV);2144.2;3.10;400;50;300;18.61;0.01;Pt;H2PtCl6·6H2O;Photoreform;Water / methanol;(4 : 1 v/v);CH3OH;TRUE;CH3OH;solid-state reaction;620;5;http://dx.doi.org/10.1117/1.JPE.11.034001
La2NiO4;Bandgap (eV);5.8;2.2;400;50;300;6.63;0.01;Pt;H2PtCl6·6H2O;Photoreform;Water / methanol;(4 : 1 v/v);CH3OH;TRUE;CH3OH;solid-state reaction;1000;6;http://dx.doi.org/10.1117/1.JPE.11.034001
TBA/HPb2Nb3O10;Bandgap (eV);34;2.63;415;2000;300;-;0.5;Pt;H2PtCl6·6H2O;Photoreform;Water / methanol;(3.4 : 1 v/v);CH3OH;TRUE;CH3OH;solid-state reaction;1000;48;https://doi.org/10.1002/cctc.201402924
HPb2Nb3O10;Bandgap (eV);12;2.58;415;2000;300;3.82;0.5;Pt;H2PtCl6·6H2O;Photoreform;Water / methanol;(3.4 : 1 v/v);CH3OH;TRUE;CH3OH;solid-state reaction;1000;48;https://doi.org/10.1002/cctc.201402924
BaSnO3;Bandgap (eV);375;2.9;420;100;500;155;0.3;Pt;H2PtCl6·6H2O;Photoreform;Water / glycerol;(9: 1 v/v);C3H8O3;TRUE;C3H8O3;hydrothermal synthesis;190;12;https://doi.org/10.1016/j.optmat.2023.114517
Ag2OBaSnO3;Bandgap (eV);3225;1.98;420;100;500;145;0.3;Pt;H2PtCl6·6H2O;Photoreform;Water / glycerol;(9 : 1 v/v);C3H8O3;TRUE;C3H8O3;hydrothermal synthesis;190;12;https://doi.org/10.1016/j.optmat.2023.114517
Ag2OBaSnO3;Bandgap (eV);1100;2.1;420;100;500;152;0.3;Pt;H2PtCl6·6H2O;Photoreform;Water / glycerol;(9 : 1 v/v);C3H8O3;TRUE;C3H8O3;hydrothermal synthesis;190;12;https://doi.org/10.1016/j.optmat.2023.114517
Ag2OBaSnO3;Bandgap (eV);1650;2;420;100;500;148;0.3;Pt;H2PtCl6·6H2O;Photoreform;Water / glycerol;(9 : 1 v/v);C3H8O3;TRUE;C3H8O3;hydrothermal synthesis;190;12;https://doi.org/10.1016/j.optmat.2023.114517
Ag2OBaSnO3;Bandgap (eV);2155;1.97;420;100;500;142;0.3;Pt;H2PtCl6·6H2O;Photoreform;Water / glycerol;(9 : 1 v/v);C3H8O3;TRUE;C3H8O3;hydrothermal synthesis;190;12;https://doi.org/10.1016/j.optmat.2023.114517
SrTiO3;Bandgap (eV);0;3.20;420;200;100;-;0.03;Au;Au nanoparticles;Photocatalysis;Water / Na2S / Na2SO3;-;-;FALSE;-;Sol-gel assisted electrospinning;800;2;https://doi.org/10.1016/j.mcat.2019.110719
CdSSrTiO3;Bandgap (eV);7.3;2.53;420;200;100;-;0.03;Au;Au nanoparticles;Photocatalysis;Water / Na2S / Na2SO3;-;-;FALSE;-;Sol-gel assisted electrospinning;800;2;https://doi.org/10.1016/j.mcat.2019.110719
CdSAuSrTiO3;Bandgap (eV);48.3;2.48;420;100;100;-;0.03;Au;Au nanoparticles;Photocatalysis;Water / Na2S / Na2SO3;-;-;FALSE;-;Sol-gel assisted electrospinning;800;2;https://doi.org/10.1016/j.mcat.2019.110719
Cs6Cu3AgBr10;Bandgap (eV);488;3.26;400;4000;300;-;0.03;FALSE;-;Photocatalysis;H3PO2 / HBr;(1 : 4 v/v);-;FALSE;-;Cooling crystallization method;90;24;https://doi.org/10.1016/j.seppur.2024.130111
Cs3Cu2Br5;Bandgap (eV);336;3.6;400;4000;300;-;0.03;FALSE;-;Photocatalysis;H3PO2 / HBr;(1 : 4 v/v);-;FALSE;-;Cooling crystallization method;90;24;https://doi.org/10.1016/j.seppur.2024.130111
CaTiO3;Bandgap (eV);0;3.5;415;19.1;300;31.7;0.1;FALSE;-;Photoreform;Water / methanol;(4 : 1 v/v);CH3OH;TRUE;CH3OH;Spray Pyrolysis;800;-;https://doi.org/10.1007/s11664-017-5551-4
CaCu0.005Ti0.995O3;Bandgap (eV);40;3.5;415;19.1;300;31.7;0.1;FALSE;-;Photoreform;Water / methanol;(4 : 1 v/v);CH3OH;TRUE;CH3OH;Spray Pyrolysis;800;-;https://doi.org/10.1007/s11664-017-5551-4
CaCu0.01Ti0.99O3;Bandgap (eV);140.7;3.5;415;19.1;300;31.7;0.1;FALSE;-;Photoreform;Water / methanol;(4 : 1 v/v);CH3OH;TRUE;CH3OH;Spray Pyrolysis;800;-;https://doi.org/10.1007/s11664-017-5551-4
CaCu0.015Ti0.985O3;Bandgap (eV);95;3.5;415;19.1;300;31.7;0.1;FALSE;-;Photoreform;Water / methanol;(4 : 1 v/v);CH3OH;TRUE;CH3OH;Spray Pyrolysis;800;-;https://doi.org/10.1007/s11664-017-5551-4
CaCu0.02Ti0.98O3;Bandgap (eV);70;3.5;415;19.1;300;31.7;0.1;FALSE;-;Photoreform;Water / methanol;(4 : 1 v/v);CH3OH;TRUE;CH3OH;Spray Pyrolysis;800;-;https://doi.org/10.1007/s11664-017-5551-4
CaCu0.02Ti0.98O3;Bandgap (eV);295;3.5;415;19.1;300;44;0.1;FALSE;-;Photoreform;Water / methanol;(4 : 1 v/v);CH3OH;TRUE;CH3OH;Spray Pyrolysis;800;-;https://doi.org/10.1007/s11664-017-5551-4
Sr0.9La0.1Ti0.9Cr0.1O3;Bandgap (eV);28800;2.31;400;1000;300;7.03;0.1;Pt;H2PtCl6·6H2O;Photoreform;Water / methanol;(9 : 1 v/v);CH3OH;TRUE;CH3OH;hydrothermal synthesis;200;48;https://doi.org/10.1016/j.ijhydene.2017.01.064
Ca0.9La0.1Ti0.9Cr0.1O3;Bandgap (eV);12000;2.49;400;1000;300;3.34;0.1;Pt;H2PtCl6·6H2O;Photoreform;Water / methanol;(9 : 1 v/v);CH3OH;TRUE;CH3OH;hydrothermal synthesis;200;48;https://doi.org/10.1016/j.ijhydene.2017.01.064
Ba0.9La0.1Ti0.9Cr0.1O3;Bandgap (eV);4000;2.52;400;1000;300;22.46;0.1;Pt;H2PtCl6·6H2O;Photoreform;Water / methanol;(9 : 1 v/v);CH3OH;TRUE;CH3OH;hydrothermal synthesis;200;48;https://doi.org/10.1016/j.ijhydene.2017.01.064
KCa2Nb3O10;Bandgap (eV);7.78;3.35;400;5000;300;-;0.1;CdS;CdS;Photoreform;Water / Lactic acid;(4 : 1 v/v);C3H6O3;TRUE;C3H6O3;solid-state reaction;1200;10;https://doi.org/10.1016/j.jallcom.2023.171074
CdSKCa2Nb3O10;Bandgap (eV);752;2.25;400;5000;300;-;0.1;CdS;CdS;Photoreform;Water / Lactic acid;(4 : 1 v/v);C3H6O3;TRUE;C3H6O3;solid-state reaction;1200;10;https://doi.org/10.1016/j.jallcom.2023.171074
CdSNiKCa2Nb3O10;Bandgap (eV);1474;2.25;400;5000;300;-;0.1;CdS;CdS;Photoreform;Water / Lactic acid;(4 : 1 v/v);C3H6O3;TRUE;C3H6O3;solid-state reaction;1200;10;https://doi.org/10.1016/j.jallcom.2023.171074
CdSNiKCa2Nb3O10;Bandgap (eV);3159;2.25;400;5000;300;-;0.1;CdS;CdS;Photoreform;Water / Lactic acid;(4 : 1 v/v);C3H6O3;TRUE;C3H6O3;solid-state reaction;1200;10;https://doi.org/10.1016/j.jallcom.2023.171074
CdSNiKCa2Nb3O10;Bandgap (eV);5212;2.25;400;5000;300;-;0.1;CdS;CdS;Photoreform;Water / Lactic acid;(4 : 1 v/v);C3H6O3;TRUE;C3H6O3;solid-state reaction;1200;10;https://doi.org/10.1016/j.jallcom.2023.171074
CdSNiKCa2Nb3O10;Bandgap (eV);2641;2.25;400;5000;300;-;0.1;CdS;CdS;Photoreform;Water / Lactic acid;(4 : 1 v/v);C3H6O3;TRUE;C3H6O3;solid-state reaction;1200;10;https://doi.org/10.1016/j.jallcom.2023.171074
SrTiO3;Bandgap (eV);1307;3.25;420;1500;250;1.24;0.1;Pt;H2PtCl6·6H2O;Photocatalysis;Water / Na2SO3;-;-;FALSE;-;solid-state reaction;1300;20;http://dx.doi.org/10.1007/s10853-016-9945-0
SrTi0.9Cr0.1O3-δ;Bandgap (eV);6240;2.31;420;500;250;3.46;0.1;Pt;H2PtCl6·6H2O;Photocatalysis;Water / Na2SO3;-;-;FALSE;-;solid-state reaction;1300;20;http://dx.doi.org/10.1007/s10853-016-9945-0
La0.1Sr0.9Ti0.9Cr0.1O3-δ;Bandgap (eV);500;2.11;420;1000;250;2.63;0.1;Pt;H2PtCl6·6H2O;Photocatalysis;Water / Na2SO3;-;-;FALSE;-;solid-state reaction;1300;20;http://dx.doi.org/10.1007/s10853-016-9945-0
ZnTiO3;Bandgap (eV);156.7;3.87;254;318;-;3;0.2;FALSE;-;Photocatalysis;Water;-;-;FALSE;-;solvo-combustion;800;24;http://dx.doi.org/10.1016/j.jphotochem.2018.11.004
CdTiO3;Bandgap (eV);41.7;4.00;254;285;-;3;0.2;FALSE;-;Photocatalysis;Water;-;-;FALSE;-;solid-state reaction;800;24;http://dx.doi.org/10.1016/j.jphotochem.2018.11.004
PbTiO3;Bandgap (eV);133.3;2.72;254;79;-;3;0.2;FALSE;-;Photocatalysis;Water;-;-;FALSE;-;solid-state reaction;800;24;http://dx.doi.org/10.1016/j.jphotochem.2018.11.004
CaBi4Ti4O15;Bandgap (eV);0;3.36;420;-;450;-;0.3;Pt;H2PtCl6·6H2O;Photoreform;Water / methanol;(6.7 : 1 v/v);CH3OH;TRUE;CH3OH;solid-state reaction;1200;48;https://doi.org/10.1016/j.jssc.2006.01.024
PbBi4Ti4O15;Bandgap (eV);37333;3.02;420;-;450;-;0.3;Pt;H2PtCl6·6H2O;Photoreform;Water / methanol;(6.7 : 1 v/v);CH3OH;TRUE;CH3OH;solid-state reaction;1200;48;https://doi.org/10.1016/j.jssc.2006.01.024
CaBi2Nb2O9;Bandgap (eV);0;3.18;420;-;450;-;0.3;Pt;H2PtCl6·6H2O;Photoreform;Water / methanol;(6.7 : 1 v/v);CH3OH;TRUE;CH3OH;solid-state reaction;1200;48;https://doi.org/10.1016/j.jssc.2006.01.024
PbBi2Nb2O9;Bandgap (eV);10667;2.88;420;-;450;-;0.3;Pt;H2PtCl6·6H2O;Photoreform;Water / methanol;(6.7 : 1 v/v);CH3OH;TRUE;CH3OH;solid-state reaction;1200;48;https://doi.org/10.1016/j.jssc.2006.01.024
K0.5La0.5Ca1.5Nb3O10;Bandgap (eV);0;3.44;420;-;450;-;0.3;Pt;H2PtCl6·6H2O;Photoreform;Water / methanol;(6.7 : 1 v/v);CH3OH;TRUE;CH3OH;solid-state reaction;1200;48;https://doi.org/10.1016/j.jssc.2006.01.024
K0.5La0.5Ca0.75Pb0.75Nb3O10;Bandgap (eV);0;3.09;420;-;450;-;0.3;Pt;H2PtCl6·6H2O;Photoreform;Water / methanol;(6.7 : 1 v/v);CH3OH;TRUE;CH3OH;solid-state reaction;1200;48;https://doi.org/10.1016/j.jssc.2006.01.024
K0.5La0.25Bi0.25Ca0.75Pb0.75Nb3O10;Bandgap (eV);0;3.06;420;-;450;-;0.3;Pt;H2PtCl6·6H2O;Photoreform;Water / methanol;(6.7 : 1 v/v);CH3OH;TRUE;CH3OH;solid-state reaction;1200;48;https://doi.org/10.1016/j.jssc.2006.01.024
Sr3Ti2O7;Bandgap (eV);0;3.31;420;-;450;-;0.3;Pt;H2PtCl6·6H2O;Photoreform;Water / methanol;(6.7 : 1 v/v);CH3OH;TRUE;CH3OH;solid-state reaction;1200;48;https://doi.org/10.1016/j.jssc.2006.01.024
PbTiO3;Bandgap (eV);45333;2.98;420;-;450;-;0.3;Pt;H2PtCl6·6H2O;Photoreform;Water / methanol;(6.7 : 1 v/v);CH3OH;TRUE;CH3OH;solid-state reaction;1200;48;https://doi.org/10.1016/j.jssc.2006.01.024
LaSrTiO3;Bandgap (eV);246.3;3.81;420;20;500;33.3;0.05;FALSE;-;Photoreform;Water / methanol;(4 : 1 v/v);CH3OH;TRUE;CH3OH;hydrothermal synthesis;220;24;http://dx.doi.org/10.1007/s42114-023-00759-5
LaNbSrTiO3;Bandgap (eV);673.8;3.81;420;20;500;33.3;0.05;FALSE;-;Photoreform;Water / methanol;(4 : 1 v/v);CH3OH;TRUE;CH3OH;hydrothermal synthesis;220;24;http://dx.doi.org/10.1007/s42114-023-00759-5
SrTiO3;Bandgap (eV);190;3.2;420;20;500;33.3;0.05;FALSE;-;Photoreform;Water / methanol;(4 : 1 v/v);CH3OH;TRUE;CH3OH;hydrothermal synthesis;220;24;http://dx.doi.org/10.1007/s42114-023-00759-5
LaMnO3;Bandgap (eV);70;3.55;400;25;300;14.6;0.15;FALSE;-;Photoreform;Water / methanol;(4 : 1 v/v);CH3OH;TRUE;CH3OH;Green solid-state combustion;700;4;https://doi.org/10.3390/nano12172985
AgLaMnO3;Bandgap (eV);200;3.23;400;25;300;12.2;0.15;Ag;Ag nanoparticles;Photoreform;Water / methanol;(4 : 1 v/v);CH3OH;TRUE;CH3OH;Green solid-state combustion;700;4;https://doi.org/10.3390/nano12172985
AuLaMnO3;Bandgap (eV);1000;2.98;400;25;300;13.5;0.15;Au;Au nanoparticles;Photoreform;Water / methanol;(4 : 1 v/v);CH3OH;TRUE;CH3OH;Green solid-state combustion;700;4;https://doi.org/10.3390/nano12172985
PdLaMnO3;Bandgap (eV);800;3.25;400;25;300;12.4;0.15;Pd;Pd nanoparticles;Photoreform;Water / methanol;(4 : 1 v/v);CH3OH;TRUE;CH3OH;Green solid-state combustion;700;4;https://doi.org/10.3390/nano12172985
PtLaMnO3;Bandgap (eV);1600;2.82;400;25;300;20.1;0.15;Pt;Pt nanoparticles;Photoreform;Water / methanol;(4 : 1 v/v);CH3OH;TRUE;CH3OH;Green solid-state combustion;700;4;https://doi.org/10.3390/nano12172985
Sr2TiO4;Bandgap (eV);0;3.49;420;200;500;3.2;0.10;Pt;H2PtCl6·6H2O;Photocatalysis;Water / Na2SO3;-;-;FALSE;-;Polymerized-complex method;900;10;https://doi.org/10.1016/j.apcatb.2017.03.063
Sr1.99La0.001Ti0.99Rh0.001O4;Bandgap (eV);400;2.65;420;200;500;5.4;0.10;Pt;H2PtCl6·6H2O;Photocatalysis;Water / Na2SO3;-;-;FALSE;-;Polymerized-complex method;900;10;https://doi.org/10.1016/j.apcatb.2017.03.063
Sr1.97La0.03Ti0.97Rh0.03O4;Bandgap (eV);400;2.43;420;200;500;6.8;0.10;Pt;H2PtCl6·6H2O;Photocatalysis;Water / Na2SO3;-;-;FALSE;-;Polymerized-complex method;900;10;https://doi.org/10.1016/j.apcatb.2017.03.063
Sr1.95La0.05Ti0.95Rh0.05O4;Bandgap (eV);600;2.50;420;200;500;6.1;0.10;Pt;H2PtCl6·6H2O;Photocatalysis;Water / Na2SO3;-;-;FALSE;-;Polymerized-complex method;900;10;https://doi.org/10.1016/j.apcatb.2017.03.063
Sr1.93La0.07Ti0.95Rh0.05O4;Bandgap (eV);300;2.58;420;200;500;5.9;0.10;Pt;H2PtCl6·6H2O;Photocatalysis;Water / Na2SO3;-;-;FALSE;-;Polymerized-complex method;900;10;https://doi.org/10.1016/j.apcatb.2017.03.063
LaMnO3;Bandgap (eV);178;1.61;400;10000;300;-;-;BN;Boron Nitride Quantum Dots;Photoreform;Water / methanol;(9 : 1 v/v);CH3OH;TRUE;CH3OH;hydrothermal synthesis;700;4;https://doi.org/10.1016/j.ijhydene.2023.03.382
BNLaMnO3;Bandgap (eV);294;2.02;400;10000;300;-;-;BN;Boron Nitride Quantum Dots;Photoreform;Water / methanol;(9 : 1 v/v);CH3OH;TRUE;CH3OH;hydrothermal synthesis;700;4;https://doi.org/10.1016/j.ijhydene.2023.03.382
CsPbBr3;Bandgap (eV);8.67;2.29;400;24.05;300;-;0.3;FALSE;-;Photocatalysis;Water / Na2SO3;-;-;FALSE;-;Melt–quench glass method;1200;0.5;https://doi.org/10.1016/j.mcat.2020.110764
CsPbBrZn0.5;Bandgap (eV);11.70;2.32;400;19.10;300;-;0.3;FALSE;-;Photocatalysis;Water / Na2SO3;-;-;FALSE;-;Melt–quench glass method;1200;0.5;https://doi.org/10.1016/j.mcat.2020.110764
CsPbBrZn0.9;Bandgap (eV);10.53;2.32;400;19.10;300;-;0.3;FALSE;-;Photocatalysis;Water / Na2SO3;-;-;FALSE;-;Melt–quench glass method;1200;0.5;https://doi.org/10.1016/j.mcat.2020.110764
CaNbO2N;Bandgap (eV);10000;2.0;420;-;300;31;0.1;Pt;H2PtCl6·6H2O;Photoreform;Water / methanol;(9 : 1 v/v);CH3OH;TRUE;CH3OH;Polymerized-complex method;760;15;https://doi.org/10.1002/cssc.201000207
SrNbO2N;Bandgap (eV);0;1.8;420;-;300;-;0.1;Pt;H2PtCl6·6H2O;Photoreform;Water / methanol;(9 : 1 v/v);CH3OH;TRUE;CH3OH;Polymerized-complex method;750;15;https://doi.org/10.1002/cssc.201000207
BaNbO2N;Bandgap (eV);0;1.7;420;-;300;-;0.1;Pt;H2PtCl6·6H2O;Photoreform;Water / methanol;(9 : 1 v/v);CH3OH;TRUE;CH3OH;Polymerized-complex method;750;15;https://doi.org/10.1002/cssc.201000207
LaNbO2N;Bandgap (eV);0;1.6;420;-;300;-;0.1;Pt;H2PtCl6·6H2O;Photoreform;Water / methanol;(9 : 1 v/v);CH3OH;TRUE;CH3OH;Polymerized-complex method;750;15;https://doi.org/10.1002/cssc.201000207
Ba5Ta4O15;Bandgap (eV);305;4.05;400;-;300;-;0.1;Pt;H2PtCl6·6H2O;Photoreform;Water / methanol;(4 : 1 v/v);CH3OH;TRUE;CH3OH;solid-state reaction;1150;36;https://doi.org/10.1021/jp202783t
NBa5Ta4O15;Bandgap (eV);495;1.75;400;-;300;-;0.1;Pt;H2PtCl6·6H2O;Photoreform;Water / methanol;(4 : 1 v/v);CH3OH;TRUE;CH3OH;solid-state reaction;900;2.5;https://doi.org/10.1021/jp202783t
BaTiO3;Bandgap (eV);35;3.0;400;500;300;-;0.2;Pt;H2PtCl6·6H2O;Photoreform;Water / methanol;(5 : 1 v/v);CH3OH;TRUE;CH3OH;solid-state reaction;1150;5;https://doi.org/10.1016/j.ijhydene.2019.03.145
BaTi0.99Mo0.01O3;Bandgap (eV);48;2.4;400;500;300;-;0.2;Pt;H2PtCl6·6H2O;Photoreform;Water / methanol;(5 : 1 v/v);CH3OH;TRUE;CH3OH;solid-state reaction;1150;5;https://doi.org/10.1016/j.ijhydene.2019.03.145
BaTi0.98Mo0.02O3;Bandgap (eV);63;2.2;400;500;300;-;0.2;Pt;H2PtCl6·6H2O;Photoreform;Water / methanol;(5 : 1 v/v);CH3OH;TRUE;CH3OH;solid-state reaction;1150;5;https://doi.org/10.1016/j.ijhydene.2019.03.145
BaTi0.97Mo0.03O3;Bandgap (eV);41;2.6;400;500;300;-;0.2;Pt;H2PtCl6·6H2O;Photoreform;Water / methanol;(5 : 1 v/v);CH3OH;TRUE;CH3OH;solid-state reaction;1150;5;https://doi.org/10.1016/j.ijhydene.2019.03.145
CaTiO3;Bandgap (eV);0;3.51;400;500;500;5.37;0.1;Pt;H2PtCl6·6H2O;Photocatalysis;Water / Na2SO3;-;-;FALSE;-;hydrothermal synthesis;-;-;https://doi.org/10.1016/j.apcatb.2017.11.061
Ca0.95La0.05Ti0.95Cr0.05O3;Bandgap (eV);495;2.49;400;1000;500;14.69;0.1;Pt;H2PtCl6·6H2O;Photocatalysis;Water / Na2SO3;-;-;FALSE;-;hydrothermal synthesis;-;-;https://doi.org/10.1016/j.apcatb.2017.11.061
Ca0.90La0.10Ti0.90Cr0.10O3;Bandgap (eV);117.5;2.48;400;1000;500;9.72;0.1;Pt;H2PtCl6·6H2O;Photocatalysis;Water / Na2SO3;-;-;FALSE;-;hydrothermal synthesis;-;-;https://doi.org/10.1016/j.apcatb.2017.11.061
Ca0.80La0.20Ti0.80Cr0.20O3 ;Bandgap (eV);164;2.50;400;1000;500;9.51;0.1;Pt;H2PtCl6·6H2O;Photocatalysis;Water / Na2SO3;-;-;FALSE;-;hydrothermal synthesis;-;-;https://doi.org/10.1016/j.apcatb.2017.11.061
CH3(NH3)3Bi2I9;Bandgap (eV);12.19;1.98;400;1500;300;-;0.04;FALSE;-;Photocatalysis; HI / H3PO2;-;-;FALSE;-;Solution crystallization;65;24;https://doi.org/10.1021/acssuschemeng.9b03761
CH3(NH3)3Bi2I9Pt;Bandgap (eV);169.21;1.98;400;1500;300;-;0.04;Pt;H2PtCl6·6H2O;Photocatalysis; HI / H3PO2;-;-;FALSE;-;Solution crystallization;65;24;https://doi.org/10.1021/acssuschemeng.9b03761
FeTiO3;Bandgap (eV);192.21;2.42;400;50;300;-;0.02;FALSE;-;Photoreform;Water / methanol;(4 : 1 v/v);CH3OH;TRUE;CH3OH;Ultrasonic sol–gel;750;4;https://doi.org/10.1016/j.jallcom.2024.175382
FeTiO3C;Bandgap (eV);316.22;2.36;400;50;300;-;0.02;FALSE;-;Photoreform;Water / methanol;(4 : 1 v/v);CH3OH;TRUE;CH3OH;Ultrasonic sol–gel;750;4;https://doi.org/10.1016/j.jallcom.2024.175382
FeTiO3C;Bandgap (eV);378.22;2.32;400;50;300;-;0.02;FALSE;-;Photoreform;Water / methanol;(4 : 1 v/v);CH3OH;TRUE;CH3OH;Ultrasonic sol–gel;750;4;https://doi.org/10.1016/j.jallcom.2024.175382
FeTiO3C;Bandgap (eV);415.43;2.26;400;50;300;-;0.02;FALSE;-;Photoreform;Water / methanol;(4 : 1 v/v);CH3OH;TRUE;CH3OH;Ultrasonic sol–gel;750;4;https://doi.org/10.1016/j.jallcom.2024.175382
FeTiO3C;Bandgap (eV);396.83;2.22;400;50;300;-;0.02;FALSE;-;Photoreform;Water / methanol;(4 : 1 v/v);CH3OH;TRUE;CH3OH;Ultrasonic sol–gel;750;4;https://doi.org/10.1016/j.jallcom.2024.175382
LaMnO3;Bandgap (eV);300.74;2.64;400;200;300;-;0.02;Pt;H2PtCl6·6H2O;Photoreform;Water / methanol;(4 : 1 v/v);CH3OH;TRUE;CH3OH;Electrospinning;800;3;https://doi.org/10.1016/j.mssp.2023.107697
LaMn0.98Fe0.02O3;Bandgap (eV);494.42;2.64;400;200;300;-;0.02;Pt;H2PtCl6·6H2O;Photoreform;Water / methanol;(4 : 1 v/v);CH3OH;TRUE;CH3OH;Electrospinning;800;3;https://doi.org/10.1016/j.mssp.2023.107697
LaMn0.96Fe0.04O3;Bandgap (eV);767.71;2.64;400;200;300;-;0.02;Pt;H2PtCl6·6H2O;Photoreform;Water / methanol;(4 : 1 v/v);CH3OH;TRUE;CH3OH;Electrospinning;800;3;https://doi.org/10.1016/j.mssp.2023.107697
LaMn0.95Fe0.05O3;Bandgap (eV);425.27;2.64;400;200;300;-;0.02;Pt;H2PtCl6·6H2O;Photoreform;Water / methanol;(4 : 1 v/v);CH3OH;TRUE;CH3OH;Electrospinning;800;3;https://doi.org/10.1016/j.mssp.2023.107697
LaMn0.94Fe0.06O3;Bandgap (eV);581.73;2.64;400;200;300;-;0.02;Pt;H2PtCl6·6H2O;Photoreform;Water / methanol;(4 : 1 v/v);CH3OH;TRUE;CH3OH;Electrospinning;800;3;https://doi.org/10.1016/j.mssp.2023.107697
LaMn0.92Fe0.08O3;Bandgap (eV);385.68;2.64;400;200;300;-;0.02;Pt;H2PtCl6·6H2O;Photoreform;Water / methanol;(4 : 1 v/v);CH3OH;TRUE;CH3OH;Electrospinning;800;3;https://doi.org/10.1016/j.mssp.2023.107697
K1NbO3BiNi0.5Ti0.5O3;Bandgap (eV);7842;3.31;400;160;300;-;0.02;Pt;H2PtCl6·6H2O;Photoreform;Water / methanol;(7 : 3 v/v);CH3OH;TRUE;CH3OH;Electrospinning;650;4;https://doi.org/10.1016/j.apsusc.2021.151359
K0.995NbO2.995BiNi0.5Ti0.5O3;Bandgap (eV);7434;3.30;420;160;300;-;0.02;Pt;H2PtCl6·6H2O;Photoreform;Water / methanol;(7 : 3 v/v);CH3OH;TRUE;CH3OH;Electrospinning;650;4;https://doi.org/10.1016/j.apsusc.2021.151359
K0.99NbO2.99BiNi0.5Ti0.5O3;Bandgap (eV);7002;3.23;420;160;300;-;0.02;Pt;H2PtCl6·6H2O;Photoreform;Water / methanol;(7 : 3 v/v);CH3OH;TRUE;CH3OH;Electrospinning;650;4;https://doi.org/10.1016/j.apsusc.2021.151359
K0.98NbO0.98bBiNi0.5Ti0.5O3;Bandgap (eV);4945;3.22;420;160;300;-;0.02;Pt;H2PtCl6·6H2O;Photoreform;Water / methanol;(7 : 3 v/v);CH3OH;TRUE;CH3OH;Electrospinning;650;4;https://doi.org/10.1016/j.apsusc.2021.151359
K0.97Nb0.97BiNi0.5Ti0.5O3;Bandgap (eV);2781;3.21;420;160;300;-;0.02;Pt;H2PtCl6·6H2O;Photoreform;Water / methanol;(7 : 3 v/v);CH3OH;TRUE;CH3OH;Electrospinning;650;4;https://doi.org/10.1016/j.apsusc.2021.151359
K0.95Nb0.95BiNi0.5Ti0.5O3;Bandgap (eV);1225;3.18;420;160;300;-;0.02;Pt;H2PtCl6·6H2O;Photoreform;Water / methanol;(7 : 3 v/v);CH3OH;TRUE;CH3OH;Electrospinning;650;4;https://doi.org/10.1016/j.apsusc.2021.151359
Zn2TiO4;Bandgap (eV);0;3.67;420;5000;500;0.7688;0.1;Pt;H2PtCl6·6H2O;Photocatalysis;Water / Na2SO3;-;-;FALSE;-;Polymerized-complex method;1000;10;https://doi.org/10.1002/cctc.201600425
Zn2Ti0.99Rh0.01O4;Bandgap (eV);166;2.73;420;5000;500;0.9258;0.1;Pt;H2PtCl6·6H2O;Photocatalysis;Water / Na2SO3;-;-;FALSE;-;Polymerized-complex method;1000;10;https://doi.org/10.1002/cctc.201600425
Zn2Ti0.97Rh0.03O4;Bandgap (eV);57;2.58;420;5000;500;0.7009;0.1;Pt;H2PtCl6·6H2O;Photocatalysis;Water / Na2SO3;-;-;FALSE;-;Polymerized-complex method;1000;10;https://doi.org/10.1002/cctc.201600425
Zn2Ti0.96Rh0.04O4;Bandgap (eV);864;2.49;420;5000;500;0.9399;0.1;Pt;H2PtCl6·6H2O;Photocatalysis;Water / Na2SO3;-;-;FALSE;-;Polymerized-complex method;1000;10;https://doi.org/10.1002/cctc.201600425
Zn2Ti0.95Rh0.05O4;Bandgap (eV);288;2.52;420;5000;500;0.8086;0.1;Pt;H2PtCl6·6H2O;Photocatalysis;Water / Na2SO3;-;-;FALSE;-;Polymerized-complex method;1000;10;https://doi.org/10.1002/cctc.201600425
Ba5Ta4O15-Ba3Ta5O15-BaTa2O6 ;Bandgap (eV);5900;4.3;400;70;500;2.5;0.20;FALSE;-;Photoreform;Water / methanol;(11: 1 v/v);CH3OH;TRUE;CH3OH;Citrate Synthesis;1000;10;http://dx.doi.org/10.1088/2515-7655/abc07a
KNbO3;Bandgap (eV);0;3.40;420;101;300;-;0.020;Pt;H2PtCl6·6H2O;Photoreform;Water / methanol;(7 : 3 v/v);CH3OH;TRUE;CH3OH;Pechini sol-gel-based electrospinnig;650;4;https://doi.org/10.1021/acs.jpcc.1c10127
K0.95Na0.05NbO3;Bandgap (eV);33;3.42;420;103;300;-;0.020;Pt;H2PtCl6·6H2O;Photoreform;Water / methanol;(7 : 3 v/v);CH3OH;TRUE;CH3OH;Pechini sol-gel-based electrospinnig;650;4;https://doi.org/10.1021/acs.jpcc.1c10127
K0.9Na0.1NbO3;Bandgap (eV);7718;3.42;420;103;300;-;0.020;Pt;H2PtCl6·6H2O;Photoreform;Water / methanol;(7 : 3 v/v);CH3OH;TRUE;CH3OH;Pechini sol-gel-based electrospinnig;650;4;https://doi.org/10.1021/acs.jpcc.1c10127
K0.7Na0.3NbO3;Bandgap (eV);9304;3.37;420;103;300;-;0.020;Pt;H2PtCl6·6H2O;Photoreform;Water / methanol;(7 : 3 v/v);CH3OH;TRUE;CH3OH;Pechini sol-gel-based electrospinnig;650;4;https://doi.org/10.1021/acs.jpcc.1c10127
K0.5Na0.5NbO3;Bandgap (eV);11506;3.27;420;103;300;-;0.020;Pt;H2PtCl6·6H2O;Photoreform;Water / methanol;(7 : 3 v/v);CH3OH;TRUE;CH3OH;Pechini sol-gel-based electrospinnig;650;4;https://doi.org/10.1021/acs.jpcc.1c10127
K0.3Na0.7NbO3;Bandgap (eV);9355;3.44;420;103;300;-;0.020;Pt;H2PtCl6·6H2O;Photoreform;Water / methanol;(7 : 3 v/v);CH3OH;TRUE;CH3OH;Pechini sol-gel-based electrospinnig;650;4;https://doi.org/10.1021/acs.jpcc.1c10127
NaNbO3;Bandgap (eV);8717;3.60;420;95;300;-;0.020;Pt;H2PtCl6·6H2O;Photoreform;Water / methanol;(7 : 3 v/v);CH3OH;TRUE;CH3OH;Pechini sol-gel-based electrospinnig;650;4;https://doi.org/10.1021/acs.jpcc.1c10127
GbFeO3;Bandgap (eV);685;2.6;400;71;200;18.7;0.020;FALSE;-;Photocatalysis;Water / Na2S / Na2SO3;-;-;FALSE;-;Alkali-assisted solvothermal method;800;-;https://doi.org/10.1016/j.mtchem.2023.101713
Sr2FeTaO6;Bandgap (eV);113.5;2.01;400;5000;500;4;0.10;Pt;H2PtCl6·6H2O;Photocatalysis;Water / Na2SO3;-;-;FALSE;-;Polymeric citrate precursor method;1000;12;https://doi.org/10.1016/j.apcatb.2017.01.011
Sr3FeTaO7;Bandgap (eV);190.4;2.21;400;5000;500;21.4;0.10;Pt;H2PtCl6·6H2O;Photocatalysis;Water / Na2SO3;-;-;FALSE;-;Polymeric citrate precursor method;1200;12;https://doi.org/10.1016/j.apcatb.2017.01.011
Sr3FeTaO8;Bandgap (eV);261.8;2.27;400;5000;500;7;0.10;Pt;H2PtCl6·6H2O;Photocatalysis;Water / Na2SO3;-;-;FALSE;-;Polymeric citrate precursor method;1400;12;https://doi.org/10.1016/j.apcatb.2017.01.011
HPb2Nb3O10;Bandgap (eV);55;2.58;400;2500;300;-;0.5;Pt;H2PtCl6·6H2O;Photoreform;Water / methanol;(4 : 1 v/v);CH3OH;TRUE;CH3OH;solid-state reaction;1000;48;https://doi.org/10.1016/j.apcata.2013.09.015
H1.1Pb2Nb2.95Cr0.05O10;Bandgap (eV);110;2.43;400;2500;300;-;0.5;Pt;H2PtCl6·6H2O;Photoreform;Water / methanol;(4 : 1 v/v);CH3OH;TRUE;CH3OH;solid-state reaction;1000;49;https://doi.org/10.1016/j.apcata.2013.09.015
Sr4Ta2O9;Bandgap (eV);30;4.55;400;500;300;0.34;0.10;Pt;H2PtCl6·6H2O;Photocatalysis;Water / Na2SO3;-;-;FALSE;-;solid-state reaction;1000;10;https://doi.org/10.1039/C8TA06934D
Sr4Ta2O9-xNy;Bandgap (eV);300;2.20;400;1000;300;5.70;0.10;Pt;H2PtCl6·6H2O;Photocatalysis;Water / Na2SO3;-;-;FALSE;-;solid-state reaction;1000;10;https://doi.org/10.1039/C8TA06934D
SrTaO2N;Bandgap (eV);70;2.03;400;100;300;5.08;0.10;Pt;H2PtCl6·6H2O;Photocatalysis;Water / Na2SO3;-;-;FALSE;-;solid-state reaction;1000;10;https://doi.org/10.1039/C8TA06934D
SrTiO3;Bandgap (eV);79.36;3.10;400;500;300;-;0.010;Pt;H2PtCl6·6H2O;Photocatalysis;Water / Na2S / Na2SO3;-;-;FALSE;-;hydrothermal synthesis;200;10;https://doi.org/10.1002/solr.202300259
SrTiO3CdS;Bandgap (eV);4537.9;2.15;400;500;300;-;0.010;Pt;H2PtCl6·6H2O;Photocatalysis;Water / Na2S / Na2SO3;-;-;FALSE;-;Chemical bath deposition;80;1;https://doi.org/10.1002/solr.202300259
LaFeO3;Bandgap (eV);94.8;2.31;400;28.79;350;-;0.10;RhCrOx;Na3RhCl61·2H2O / Cr(NO3)3·9H2O;Photoreform;Water / TEOS;(8 : 2 v/v);C8H20O4Si;TRUE;C8H20O4Si;Citric-acid assisted co-precipitation;700;6;https://doi.org/10.3390/catal11050612
PrLaFeO3;Bandgap (eV);127;2.00;400;16.04;350;-;0.10;RhCrOx;Na3RhCl61·2H2O / Cr(NO3)3·9H2O;Photoreform;Water / TEOS;(8 : 2 v/v);C8H20O4Si;TRUE;C8H20O4Si;Citric-acid assisted co-precipitation;700;6;https://doi.org/10.3390/catal11050612
YLaFeO3;Bandgap (eV);80;2.00;400;15.60;350;-;0.10;RhCrOx;Na3RhCl61·2H2O / Cr(NO3)3·9H2O;Photoreform;Water / TEOS;(8 : 2 v/v);C8H20O4Si;TRUE;C8H20O4Si;Citric-acid assisted co-precipitation;700;6;https://doi.org/10.3390/catal11050612
EuLaFeO3;Bandgap (eV);96;2.08;400;19.38;350;-;0.10;RhCrOx;Na3RhCl61·2H2O / Cr(NO3)3·9H2O;Photoreform;Water / TEOS;(8 : 2 v/v);C8H20O4Si;TRUE;C8H20O4Si;Citric-acid assisted co-precipitation;700;6;https://doi.org/10.3390/catal11050612
CaLaFeO3;Bandgap (eV);0;2.17;400;21.39;350;-;0.10;RhCrOx;Na3RhCl61·2H2O / Cr(NO3)3·9H2O;Photoreform;Water / TEOS;(8 : 2 v/v);C8H20O4Si;TRUE;C8H20O4Si;Citric-acid assisted co-precipitation;700;6;https://doi.org/10.3390/catal11050612
MgLaFeO3;Bandgap (eV);60;2.20;400;27.85;350;-;0.10;RhCrOx;Na3RhCl61·2H2O / Cr(NO3)3·9H2O;Photoreform;Water / TEOS;(8 : 2 v/v);C8H20O4Si;TRUE;C8H20O4Si;Citric-acid assisted co-precipitation;700;6;https://doi.org/10.3390/catal11050612
TbLaFeO3;Bandgap (eV);70;2.30;400;18.31;350;-;0.10;RhCrOx;Na3RhCl61·2H2O / Cr(NO3)3·9H2O;Photoreform;Water / TEOS;(8 : 2 v/v);C8H20O4Si;TRUE;C8H20O4Si;Citric-acid assisted co-precipitation;700;6;https://doi.org/10.3390/catal11050612
InLaFeO3;Bandgap (eV);84;2.05;400;20.10;350;-;0.10;RhCrOx;Na3RhCl61·2H2O / Cr(NO3)3·9H2O;Photoreform;Water / TEOS;(8 : 2 v/v);C8H20O4Si;TRUE;C8H20O4Si;Citric-acid assisted co-precipitation;700;6;https://doi.org/10.3390/catal11050612
BaZrO3;Bandgap (eV);20500;3.29;400;2000;500;26.31;0.025;FALSE;-;Photocatalysis;Water / Na2SO3;-;-;FALSE;-;hydrothermal synthesis;180;12;https://doi.org/10.1016/j.apcatb.2024.124633
BaZrO3;Bandgap (eV);16400;3.33;400;2000;500;18;0.025;FALSE;-;Photocatalysis;Water / Na2SO3;-;-;FALSE;-;hydrothermal synthesis;200;24;https://doi.org/10.1016/j.apcatb.2024.124633
BaZrO3;Bandgap (eV);14800;3.33;400;500;500;12;0.025;FALSE;-;Photocatalysis;Water / Na2SO3;-;-;FALSE;-;Electrospinning;1200;2;https://doi.org/10.1016/j.apcatb.2024.124633
BaZrO3;Bandgap (eV);13100;3.37;400;300;500;9;0.025;FALSE;-;Photocatalysis;Water / Na2SO3;-;-;FALSE;-;precipitation;1200;2;https://doi.org/10.1016/j.apcatb.2024.124633
BaZrO3;Bandgap (eV);3200;2.37;400;400;300;18.3;0.025;FALSE;-;Photocatalysis;Water / Na2SO3;-;-;FALSE;-;Solvothermal synthesis;700;2;https://doi.org/10.1021/acs.jpcc.8b10626
BaZr0.99Ce0.01O3;Bandgap (eV);7800;2.32;400;400;300;24.6;0.025;FALSE;-;Photocatalysis;Water / Na2SO3;-;-;FALSE;-;Solvothermal synthesis;700;2;https://doi.org/10.1021/acs.jpcc.8b10626
BaZr0.98Ce0.02O3;Bandgap (eV);11600;2.25;400;400;300;33.9;0.025;FALSE;-;Photocatalysis;Water / Na2SO3;-;-;FALSE;-;Solvothermal synthesis;700;2;https://doi.org/10.1021/acs.jpcc.8b10626
BaZr0.97Ce0.03O3−δ;Bandgap (eV);18200;2.19;400;400;300;42.1;0.025;FALSE;-;Photocatalysis;Water / Na2SO3;-;-;FALSE;-;Solvothermal synthesis;700;2;https://doi.org/10.1021/acs.jpcc.8b10626
BaZr0.99Ce0.04O3;Bandgap (eV);14100;2.14;400;400;300;36.7;0.025;FALSE;-;Photocatalysis;Water / Na2SO3;-;-;FALSE;-;Solvothermal synthesis;700;2;https://doi.org/10.1021/acs.jpcc.8b10626
Cs3Bi2I9;Bandgap (eV);11.2;1.94;400;5000;300;-;0.10;FALSE;-;Photocatalysis; HI / H3PO2;-;-;FALSE;-;Co-precipitation in HI acid;FALSE;FALSE;https://doi.org/10.1002/adma.202001344
Cs3Bi1.7Sb1.4I9;Bandgap (eV);786;1.88;400;5000;300;-;0.10;FALSE;-;Photocatalysis; HI / H3PO2;-;-;FALSE;-;Co-precipitation in HI acid;FALSE;FALSE;https://doi.org/10.1002/adma.202001344
Cs3Bi1.7Sb1.4I9Pt;Bandgap (eV);926;1.63;400;5000;300;-;0.10;Pt;H2PtCl6·6H2O;Photocatalysis; HI / H3PO2;-;-;FALSE;-;Co-precipitation in HI acid;FALSE;FALSE;https://doi.org/10.1002/adma.202001344
LaNaTaO3;Bandgap (eV);19.8;3.98;250;25;1000;-;0.05;FALSE;-;Photoreform;Water / methanol;(9 : 1 v/v);CH3OH;TRUE;CH3OH;Wet-chemical templated synthesis;900;16;https://doi.org/10.1021/acsomega.1c00584
RuO2LaNaTaO3;Bandgap (eV);219.2;4.08;250;25;1000;-;0.05;Ru;RuO2 nanoparticles;Photoreform;Water / methanol;(9 : 1 v/v);CH3OH;TRUE;CH3OH;Wet-chemical templated synthesis;900;16;https://doi.org/10.1021/acsomega.1c00584
RuO2LaNaTaO3;Bandgap (eV);193.2;4.08;250;25;1000;-;0.05;Ru;RuO2 nanoparticles;Photoreform;Water / methanol;(9 : 1 v/v);CH3OH;TRUE;CH3OH;Wet-chemical templated synthesis;900;16;https://doi.org/10.1021/acsomega.1c00584
RuO2LaNaTaO3;Bandgap (eV);230.8;4.18;250;25;1000;34;0.05;Ru;RuO2 nanoparticles;Photoreform;Water / methanol;(9 : 1 v/v);CH3OH;TRUE;CH3OH;Wet-chemical templated synthesis;900;16;https://doi.org/10.1021/acsomega.1c00584
RuO2LaNaTaO3;Bandgap (eV);176.2;4.18;250;25;1000;-;0.05;Ru;RuO2 nanoparticles;Photoreform;Water / methanol;(9 : 1 v/v);CH3OH;TRUE;CH3OH;Wet-chemical templated synthesis;900;16;https://doi.org/10.1021/acsomega.1c00584
TiO2-I@CS3Bi2I9-10;Bandgap (eV);176.5;2.62;400;2000;1000;114;0.025;FALSE;-;Photoreform;Water / TEOA;(9 : 1 v/v);C6H15NO3;TRUE;C6H15NO3;Solvothermal synthesis;60;12;https://doi.org/10.1016/j.cattod.2024.114626
TiO2-I@CS3BI2I9-50;Bandgap (eV);163.2;2.17;400;2000;1000;114;0.025;FALSE;-;Photoreform;Water / TEOA;(9 : 1 v/v);C6H15NO3;TRUE;C6H15NO3;Solvothermal synthesis;60;12;https://doi.org/10.1016/j.cattod.2024.114626
TiO2-I@CS3Bi2I9-100;Bandgap (eV);159.3;2.3;400;2000;1000;110;0.025;FALSE;-;Photoreform;Water / TEOA;(9 : 1 v/v);C6H15NO3;TRUE;C6H15NO3;Solvothermal synthesis;60;12;https://doi.org/10.1016/j.cattod.2024.114626
TiO2-I@CS3Bi2I9-300;Bandgap (eV);97.8;2.53;400;2000;1000;102;0.025;FALSE;-;Photoreform;Water / TEOA;(9 : 1 v/v);C6H15NO3;TRUE;C6H15NO3;Solvothermal synthesis;60;12;https://doi.org/10.1016/j.cattod.2024.114626
TiO2-B@CS3BI2Br9-100;Bandgap (eV);98.1;2.99;400;2000;1000;65;0.025;FALSE;-;Photoreform;Water / TEOA;(9 : 1 v/v);C6H15NO3;TRUE;C6H15NO3;Solvothermal synthesis;60;12;https://doi.org/10.1016/j.cattod.2024.114626
CaTiO3;Bandgap (eV);5.12;3.64;250;6000;300;-;0.010;FALSE;-;Photoreform;Water / TEOA;(9 : 1 v/v);C6H15NO3;TRUE;C6H15NO3;hydrothermal synthesis;-;-;http://dx.doi.org/10.1007/s12274-024-6666-6
NiCo2S4CaTiO3;Bandgap (eV);307.76;3.61;250;6000;300;-;0.010;Ni/Co;NiCo2S4;Photoreform;Water / TEOA;(9 : 1 v/v);C6H15NO3;TRUE;C6H15NO3;Mechanical grinding;200;2;http://dx.doi.org/10.1007/s12274-024-6666-6
LaFeO3;Bandgap (eV);5940;2.08;400;16;39;12;0.05;FALSE;-;Photocatalysis;Water / NaOH / Na2SO4;-;-;FALSE;-;Sol-gel route;850;8;https://doi.org/10.1016/j.ijhydene.2022.12.327
NaTaO3;Bandgap (eV);50;4.05;250;128;150;1.1;0.20;Pt;H2PtCl6·6H2O;Photoreform;Water / methanol;(9 : 1 v/v);CH3OH;TRUE;CH3OH;solid-state reaction;900;12;https://doi.org/10.1016/j.ijhydene.2016.09.015
NaNbO3;Bandgap (eV);20;3.41;250;288;150;1.0;0.20;Pt;H2PtCl6·6H2O;Photoreform;Water / methanol;(9 : 1 v/v);CH3OH;TRUE;CH3OH;solid-state reaction;900;12;https://doi.org/10.1016/j.ijhydene.2016.09.015
NaNb0.5Ta0.5O3;Bandgap (eV);100;3.53;250;133;150;1.0;0.20;Pt;H2PtCl6·6H2O;Photoreform;Water / methanol;(9 : 1 v/v);CH3OH;TRUE;CH3OH;solid-state reaction;900;12;https://doi.org/10.1016/j.ijhydene.2016.09.015
LiNb0.5Ta0.5O3;Bandgap (eV);10;4.30;250;118;150;2.0;0.20;Pt;H2PtCl6·6H2O;Photoreform;Water / methanol;(9 : 1 v/v);CH3OH;TRUE;CH3OH;solid-state reaction;900;12;https://doi.org/10.1016/j.ijhydene.2016.09.015
KNb0.5Ta0.5O3;Bandgap (eV);40;3.48;250;97;150;2.1;0.20;Pt;H2PtCl6·6H2O;Photoreform;Water / methanol;(9 : 1 v/v);CH3OH;TRUE;CH3OH;solid-state reaction;900;12;https://doi.org/10.1016/j.ijhydene.2016.09.015
La2NiO4;Bandgap (eV);2.40;2.4;420;300;300;3;0.010;FALSE;-;Photoreform;Water / methanol;(4 : 1 v/v);CH3OH;TRUE;CH3OH;Sol-gel + solid-state reaction;1200;12;https://doi.org/10.1016/j.seppur.2023.123310
La1.9Sr0.1NiO4+δ;Bandgap (eV);62.7;2.1;420;300;300;6;0.010;FALSE;-;Photoreform;Water / methanol;(4 : 1 v/v);CH3OH;TRUE;CH3OH;Sol-gel + solid-state reaction;1200;12;https://doi.org/10.1016/j.seppur.2023.123310
La1.9Sr0.1Ni0.8Co0.2O4+δ;Bandgap (eV);70.3;2.15;420;300;300;9;0.010;FALSE;-;Photoreform;Water / methanol;(4 : 1 v/v);CH3OH;TRUE;CH3OH;Sol-gel + solid-state reaction;1200;12;https://doi.org/10.1016/j.seppur.2023.123310
La1.9Sr0.1Ni0.8Co0.2O4+δ;Bandgap (eV);61.8;2.00;420;300;300;9;0.010;FALSE;-;Photoreform;Water / methanol;(4 : 1 v/v);CH3OH;TRUE;CH3OH;Sol-gel + solid-state reaction;1200;12;https://doi.org/10.1016/j.seppur.2023.123310
BaTiO3;Bandgap (eV);789700;3.38;400;10;-;2.11;0.05;Pt;H2PtCl6·6H2O;Photoreform;Water / TEOA;(9 : 1 v/v);C6H15NO3;TRUE;C6H15NO3;-;-;-;https://doi.org/10.1016/j.jallcom.2018.04.300
BaTiO3;Bandgap (eV);98500;3.27;400;10;-;120.98;0.05;Pt;H2PtCl6·6H2O;Photoreform;Water / TEOA;(9 : 1 v/v);C6H15NO3;TRUE;C6H15NO3;Wet-chemical templated synthesis;80;12;https://doi.org/10.1016/j.jallcom.2018.04.300
KNbO3;Bandgap (eV);96.448;3.26;400;500;300;-;0.02;Pt;H2PtCl6·6H2O;Photoreform;Water / methanol;(19 : 1 v/v);CH3OH;TRUE;CH3OH;solid-state reaction;1110;2;http://dx.doi.org/10.1007/s11664-024-11026-8
[...]
;;;;;;;;;;;;;;;;;;;;
;;;;;;;;;;;;;;;;;;;;
;;;;;;;;;;;;;;;;;;;;
;;;;;;;;;;;;;;;;;;;;
;;;;;;;;;;;;;;;;;;;;
;;;;;;;;;;;;;;;;;;;;
;;;;;;;;;;;;;;;;;;;;
;;;;;;;;;;;;;;;;;;;;
;;;;;;;;;;;;;;;;;;;;
;;;;;;;;;;;;;;;;;;;;
;;;;;;;;;;;;;;;;;;;;
;;;;;;;;;;;;;;;;;;;;
;;;;;;;;;;;;;;;;;;;;
;;;;;;;;;;;;;;;;;;;;
;;;;;;;;;;;;;;;;;;;;
;;;;;;;;;;;;;;;;;;;;
;;;;;;;;;;;;;;;;;;;;
;;;;;;;;;;;;;;;;;;;;
;;;;;;;;;;;;;;;;;;;;
;;;;;;;;;;;;;;;;;;;;
;;;;;;;;;;;;;;;;;;;;
;;;;;;;;;;;;;;;;;;;;
;;;;;;;;;;;;;;;;;;;;
;;;;;;;;;;;;;;;;;;;;
;;;;;;;;;;;;;;;;;;;;
;;;;;;;;;;;;;;;;;;;;
;;;;;;;;;;;;;;;;;;;;
;;;;;;;;;;;;;;;;;;;;
;;;;;;;;;;;;;;;;;;;;
;;;;;;;;;;;;;;;;;;;;
;;;;;;;;;;;;;;;;;;;;
;;;;;;;;;;;;;;;;;;;;
;;;;;;;;;;;;;;;;;;;;
;;;;;;;;;;;;;;;;;;;;
;;;;;;;;;;;;;;;;;;;;
;;;;;;;;;;;;;;;;;;;;
;;;;;;;;;;;;;;;;;;;;
;;;;;;;;;;;;;;;;;;;;
;;;;;;;;;;;;;;;;;;;;
;;;;;;;;;;;;;;;;;;;;
;;;;;;;;;;;;;;;;;;;;
;;;;;;;;;;;;;;;;;;;;
;;;;;;;;;;;;;;;;;;;;
;;;;;;;;;;;;;;;;;;;;
;;;;;;;;;;;;;;;;;;;;
;;;;;;;;;;;;;;;;;;;;
;;;;;;;;;;;;;;;;;;;;
;;;;;;;;;;;;;;;;;;;;
;;;;;;;;;;;;;;;;;;;;
;;;;;;;;;;;;;;;;;;;;
;;;;;;;;;;;;;;;;;;;;
;;;;;;;;;;;;;;;;;;;;
;;;;;;;;;;;;;;;;;;;;
;;;;;;;;;;;;;;;;;;;;
;;;;;;;;;;;;;;;;;;;;
;;;;;;;;;;;;;;;;;;;;
;;;;;;;;;;;;;;;;;;;;
;;;;;;;;;;;;;;;;;;;;
;;;;;;;;;;;;;;;;;;;;
;;;;;;;;;;;;;;;;;;;;
;;;;;;;;;;;;;;;;;;;;
;;;;;;;;;;;;;;;;;;;;
;;;;;;;;;;;;;;;;;;;;
;;;;;;;;;;;;;;;;;;;;
;;;;;;;;;;;;;;;;;;;;
;;;;;;;;;;;;;;;;;;;;
;;;;;;;;;;;;;;;;;;;;
;;;;;;;;;;;;;;;;;;;;
;;;;;;;;;;;;;;;;;;;;
;;;;;;;;;;;;;;;;;;;;
;;;;;;;;;;;;;;;;;;;;
;;;;;;;;;;;;;;;;;;;;
;;;;;;;;;;;;;;;;;;;;
;;;;;;;;;;;;;;;;;;;;
;;;;;;;;;;;;;;;;;;;;
;;;;;;;;;;;;;;;;;;;;
;;;;;;;;;;;;;;;;;;;;
;;;;;;;;;;;;;;;;;;;;
;;;;;;;;;;;;;;;;;;;;
;;;;;;;;;;;;;;;;;;;;
;;;;;;;;;;;;;;;;;;;;
;;;;;;;;;;;;;;;;;;;;
;;;;;;;;;;;;;;;;;;;;
;;;;;;;;;;;;;;;;;;;;
;;;;;;;;;;;;;;;;;;;;
;;;;;;;;;;;;;;;;;;;;
;;;;;;;;;;;;;;;;;;;;
;;;;;;;;;;;;;;;;;;;;
;;;;;;;;;;;;;;;;;;;;
;;;;;;;;;;;;;;;;;;;;
;;;;;;;;;;;;;;;;;;;;
;;;;;;;;;;;;;;;;;;;;
;;;;;;;;;;;;;;;;;;;;
;;;;;;;;;;;;;;;;;;;;
;;;;;;;;;;;;;;;;;;;;
;;;;;;;;;;;;;;;;;;;;
;;;;;;;;;;;;;;;;;;;;
;;;;;;;;;;;;;;;;;;;;
;;;;;;;;;;;;;;;;;;;;
;;;;;;;;;;;;;;;;;;;;
;;;;;;;;;;;;;;;;;;;;
;;;;;;;;;;;;;;;;;;;;
;;;;;;;;;;;;;;;;;;;;
;;;;;;;;;;;;;;;;;;;;
;;;;;;;;;;;;;;;;;;;;
;;;;;;;;;;;;;;;;;;;;
;;;;;;;;;;;;;;;;;;;;
;;;;;;;;;;;;;;;;;;;;
;;;;;;;;;;;;;;;;;;;;
;;;;;;;;;;;;;;;;;;;;
;;;;;;;;;;;;;;;;;;;;
;;;;;;;;;;;;;;;;;;;;
;;;;;;;;;;;;;;;;;;;;
;;;;;;;;;;;;;;;;;;;;
;;;;;;;;;;;;;;;;;;;;
;;;;;;;;;;;;;;;;;;;;
;;;;;;;;;;;;;;;;;;;;
;;;;;;;;;;;;;;;;;;;;
;;;;;;;;;;;;;;;;;;;;
;;;;;;;;;;;;;;;;;;;;
;;;;;;;;;;;;;;;;;;;;
;;;;;;;;;;;;;;;;;;;;
;;;;;;;;;;;;;;;;;;;;
;;;;;;;;;;;;;;;;;;;;
;;;;;;;;;;;;;;;;;;;;
;;;;;;;;;;;;;;;;;;;;
;;;;;;;;;;;;;;;;;;;;
;;;;;;;;;;;;;;;;;;;;
;;;;;;;;;;;;;;;;;;;;
;;;;;;;;;;;;;;;;;;;;
;;;;;;;;;;;;;;;;;;;;
;;;;;;;;;;;;;;;;;;;;
;;;;;;;;;;;;;;;;;;;;
;;;;;;;;;;;;;;;;;;;;
;;;;;;;;;;;;;;;;;;;;
;;;;;;;;;;;;;;;;;;;;
;;;;;;;;;;;;;;;;;;;;
;;;;;;;;;;;;;;;;;;;;
;;;;;;;;;;;;;;;;;;;;
;;;;;;;;;;;;;;;;;;;;
;;;;;;;;;;;;;;;;;;;;
;;;;;;;;;;;;;;;;;;;;
;;;;;;;;;;;;;;;;;;;;
;;;;;;;;;;;;;;;;;;;;
;;;;;;;;;;;;;;;;;;;;
;;;;;;;;;;;;;;;;;;;;
;;;;;;;;;;;;;;;;;;;;
;;;;;;;;;;;;;;;;;;;;
;;;;;;;;;;;;;;;;;;;;
;;;;;;;;;;;;;;;;;;;;
;;;;;;;;;;;;;;;;;;;;
;;;;;;;;;;;;;;;;;;;;
;;;;;;;;;;;;;;;;;;;;
;;;;;;;;;;;;;;;;;;;;
;;;;;;;;;;;;;;;;;;;;
;;;;;;;;;;;;;;;;;;;;
;;;;;;;;;;;;;;;;;;;;
;;;;;;;;;;;;;;;;;;;;
;;;;;;;;;;;;;;;;;;;;
;;;;;;;;;;;;;;;;;;;;
;;;;;;;;;;;;;;;;;;;;
;;;;;;;;;;;;;;;;;;;;
;;;;;;;;;;;;;;;;;;;;
;;;;;;;;;;;;;;;;;;;;
;;;;;;;;;;;;;;;;;;;;
;;;;;;;;;;;;;;;;;;;;
;;;;;;;;;;;;;;;;;;;;
;;;;;;;;;;;;;;;;;;;;
;;;;;;;;;;;;;;;;;;;;
;;;;;;;;;;;;;;;;;;;;
;;;;;;;;;;;;;;;;;;;;
;;;;;;;;;;;;;;;;;;;;
;;;;;;;;;;;;;;;;;;;;
;;;;;;;;;;;;;;;;;;;;
;;;;;;;;;;;;;;;;;;;;
;;;;;;;;;;;;;;;;;;;;
;;;;;;;;;;;;;;;;;;;;
;;;;;;;;;;;;;;;;;;;;
;;;;;;;;;;;;;;;;;;;;
;;;;;;;;;;;;;;;;;;;;
;;;;;;;;;;;;;;;;;;;;
;;;;;;;;;;;;;;;;;;;;
;;;;;;;;;;;;;;;;;;;;
;;;;;;;;;;;;;;;;;;;;
;;;;;;;;;;;;;;;;;;;;
;;;;;;;;;;;;;;;;;;;;
;;;;;;;;;;;;;;;;;;;;
;;;;;;;;;;;;;;;;;;;;
;;;;;;;;;;;;;;;;;;;;
;;;;;;;;;;;;;;;;;;;;
;;;;;;;;;;;;;;;;;;;;
;;;;;;;;;;;;;;;;;;;;
;;;;;;;;;;;;;;;;;;;;
;;;;;;;;;;;;;;;;;;;;
;;;;;;;;;;;;;;;;;;;;
;;;;;;;;;;;;;;;;;;;;
;;;;;;;;;;;;;;;;;;;;
;;;;;;;;;;;;;;;;;;;;
;;;;;;;;;;;;;;;;;;;;
;;;;;;;;;;;;;;;;;;;;
;;;;;;;;;;;;;;;;;;;;
;;;;;;;;;;;;;;;;;;;;
;;;;;;;;;;;;;;;;;;;;
;;;;;;;;;;;;;;;;;;;;
;;;;;;;;;;;;;;;;;;;;
;;;;;;;;;;;;;;;;;;;;
;;;;;;;;;;;;;;;;;;;;
;;;;;;;;;;;;;;;;;;;;
;;;;;;;;;;;;;;;;;;;;
;;;;;;;;;;;;;;;;;;;;
;;;;;;;;;;;;;;;;;;;;
;;;;;;;;;;;;;;;;;;;;
;;;;;;;;;;;;;;;;;;;;
;;;;;;;;;;;;;;;;;;;;
;;;;;;;;;;;;;;;;;;;;
;;;;;;;;;;;;;;;;;;;;
;;;;;;;;;;;;;;;;;;;;
;;;;;;;;;;;;;;;;;;;;
;;;;;;;;;;;;;;;;;;;;
;;;;;;;;;;;;;;;;;;;;
;;;;;;;;;;;;;;;;;;;;
;;;;;;;;;;;;;;;;;;;;
;;;;;;;;;;;;;;;;;;;;
;;;;;;;;;;;;;;;;;;;;
;;;;;;;;;;;;;;;;;;;;
;;;;;;;;;;;;;;;;;;;;
;;;;;;;;;;;;;;;;;;;;
;;;;;;;;;;;;;;;;;;;;
;;;;;;;;;;;;;;;;;;;;
;;;;;;;;;;;;;;;;;;;;
;;;;;;;;;;;;;;;;;;;;
;;;;;;;;;;;;;;;;;;;;
;;;;;;;;;;;;;;;;;;;;
;;;;;;;;;;;;;;;;;;;;
;;;;;;;;;;;;;;;;;;;;
;;;;;;;;;;;;;;;;;;;;
;;;;;;;;;;;;;;;;;;;;
;;;;;;;;;;;;;;;;;;;;
;;;;;;;;;;;;;;;;;;;;
;;;;;;;;;;;;;;;;;;;;
;;;;;;;;;;;;;;;;;;;;
;;;;;;;;;;;;;;;;;;;;
;;;;;;;;;;;;;;;;;;;;
;;;;;;;;;;;;;;;;;;;;
;;;;;;;;;;;;;;;;;;;;
;;;;;;;;;;;;;;;;;;;;
;;;;;;;;;;;;;;;;;;;;
;;;;;;;;;;;;;;;;;;;;
;;;;;;;;;;;;;;;;;;;;
;;;;;;;;;;;;;;;;;;;;
;;;;;;;;;;;;;;;;;;;;
;;;;;;;;;;;;;;;;;;;;
;;;;;;;;;;;;;;;;;;;;
;;;;;;;;;;;;;;;;;;;;
;;;;;;;;;;;;;;;;;;;;
;;;;;;;;;;;;;;;;;;;;
;;;;;;;;;;;;;;;;;;;;
;;;;;;;;;;;;;;;;;;;;
;;;;;;;;;;;;;;;;;;;;
;;;;;;;;;;;;;;;;;;;;
;;;;;;;;;;;;;;;;;;;;
;;;;;;;;;;;;;;;;;;;;
;;;;;;;;;;;;;;;;;;;;
;;;;;;;;;;;;;;;;;;;;
;;;;;;;;;;;;;;;;;;;;
;;;;;;;;;;;;;;;;;;;;
;;;;;;;;;;;;;;;;;;;;
;;;;;;;;;;;;;;;;;;;;
;;;;;;;;;;;;;;;;;;;;
;;;;;;;;;;;;;;;;;;;;
;;;;;;;;;;;;;;;;;;;;
;;;;;;;;;;;;;;;;;;;;
;;;;;;;;;;;;;;;;;;;;
;;;;;;;;;;;;;;;;;;;;
;;;;;;;;;;;;;;;;;;;;
;;;;;;;;;;;;;;;;;;;;
;;;;;;;;;;;;;;;;;;;;
;;;;;;;;;;;;;;;;;;;;
;;;;;;;;;;;;;;;;;;;;
;;;;;;;;;;;;;;;;;;;;
;;;;;;;;;;;;;;;;;;;;
;;;;;;;;;;;;;;;;;;;;
;;;;;;;;;;;;;;;;;;;;
;;;;;;;;;;;;;;;;;;;;
;;;;;;;;;;;;;;;;;;;;
;;;;;;;;;;;;;;;;;;;;
;;;;;;;;;;;;;;;;;;;;
;;;;;;;;;;;;;;;;;;;;
;;;;;;;;;;;;;;;;;;;;
;;;;;;;;;;;;;;;;;;;;
;;;;;;;;;;;;;;;;;;;;
;;;;;;;;;;;;;;;;;;;;
;;;;;;;;;;;;;;;;;;;;
;;;;;;;;;;;;;;;;;;;;
;;;;;;;;;;;;;;;;;;;;
;;;;;;;;;;;;;;;;;;;;
;;;;;;;;;;;;;;;;;;;;
;;;;;;;;;;;;;;;;;;;;
;;;;;;;;;;;;;;;;;;;;
;;;;;;;;;;;;;;;;;;;;
;;;;;;;;;;;;;;;;;;;;
;;;;;;;;;;;;;;;;;;;;
;;;;;;;;;;;;;;;;;;;;
;;;;;;;;;;;;;;;;;;;;
;;;;;;;;;;;;;;;;;;;;
;;;;;;;;;;;;;;;;;;;;
;;;;;;;;;;;;;;;;;;;;
;;;;;;;;;;;;;;;;;;;;
;;;;;;;;;;;;;;;;;;;;
;;;;;;;;;;;;;;;;;;;;
;;;;;;;;;;;;;;;;;;;;
;;;;;;;;;;;;;;;;;;;;
;;;;;;;;;;;;;;;;;;;;
;;;;;;;;;;;;;;;;;;;;
;;;;;;;;;;;;;;;;;;;;
;;;;;;;;;;;;;;;;;;;;
;;;;;;;;;;;;;;;;;;;;
;;;;;;;;;;;;;;;;;;;;
;;;;;;;;;;;;;;;;;;;;
;;;;;;;;;;;;;;;;;;;;
;;;;;;;;;;;;;;;;;;;;
;;;;;;;;;;;;;;;;;;;;
;;;;;;;;;;;;;;;;;;;;
;;;;;;;;;;;;;;;;;;;;
;;;;;;;;;;;;;;;;;;;;
;;;;;;;;;;;;;;;;;;;;
;;;;;;;;;;;;;;;;;;;;
;;;;;;;;;;;;;;;;;;;;
;;;;;;;;;;;;;;;;;;;;
;;;;;;;;;;;;;;;;;;;;
;;;;;;;;;;;;;;;;;;;;
;;;;;;;;;;;;;;;;;;;;
;;;;;;;;;;;;;;;;;;;;
;;;;;;;;;;;;;;;;;;;;
;;;;;;;;;;;;;;;;;;;;
;;;;;;;;;;;;;;;;;;;;
;;;;;;;;;;;;;;;;;;;;
;;;;;;;;;;;;;;;;;;;;
;;;;;;;;;;;;;;;;;;;;
;;;;;;;;;;;;;;;;;;;;
;;;;;;;;;;;;;;;;;;;;
;;;;;;;;;;;;;;;;;;;;
;;;;;;;;;;;;;;;;;;;;
;;;;;;;;;;;;;;;;;;;;
;;;;;;;;;;;;;;;;;;;;
;;;;;;;;;;;;;;;;;;;;
;;;;;;;;;;;;;;;;;;;;
;;;;;;;;;;;;;;;;;;;;
;;;;;;;;;;;;;;;;;;;;
;;;;;;;;;;;;;;;;;;;;
;;;;;;;;;;;;;;;;;;;;
;;;;;;;;;;;;;;;;;;;;
;;;;;;;;;;;;;;;;;;;;
;;;;;;;;;;;;;;;;;;;;
;;;;;;;;;;;;;;;;;;;;
;;;;;;;;;;;;;;;;;;;;
;;;;;;;;;;;;;;;;;;;;
;;;;;;;;;;;;;;;;;;;;
;;;;;;;;;;;;;;;;;;;;
;;;;;;;;;;;;;;;;;;;;
;;;;;;;;;;;;;;;;;;;;
;;;;;;;;;;;;;;;;;;;;
;;;;;;;;;;;;;;;;;;;;
;;;;;;;;;;;;;;;;;;;;
;;;;;;;;;;;;;;;;;;;;
;;;;;;;;;;;;;;;;;;;;
;;;;;;;;;;;;;;;;;;;;
;;;;;;;;;;;;;;;;;;;;
;;;;;;;;;;;;;;;;;;;;
;;;;;;;;;;;;;;;;;;;;
;;;;;;;;;;;;;;;;;;;;
;;;;;;;;;;;;;;;;;;;;
;;;;;;;;;;;;;;;;;;;;
;;;;;;;;;;;;;;;;;;;;
;;;;;;;;;;;;;;;;;;;;
;;;;;;;;;;;;;;;;;;;;
;;;;;;;;;;;;;;;;;;;;
;;;;;;;;;;;;;;;;;;;;
;;;;;;;;;;;;;;;;;;;;
;;;;;;;;;;;;;;;;;;;;
;;;;;;;;;;;;;;;;;;;;
;;;;;;;;;;;;;;;;;;;;
;;;;;;;;;;;;;;;;;;;;
;;;;;;;;;;;;;;;;;;;;
;;;;;;;;;;;;;;;;;;;;
;;;;;;;;;;;;;;;;;;;;
;;;;;;;;;;;;;;;;;;;;
;;;;;;;;;;;;;;;;;;;;
;;;;;;;;;;;;;;;;;;;;
;;;;;;;;;;;;;;;;;;;;
;;;;;;;;;;;;;;;;;;;;
;;;;;;;;;;;;;;;;;;;;
;;;;;;;;;;;;;;;;;;;;
;;;;;;;;;;;;;;;;;;;;
;;;;;;;;;;;;;;;;;;;;
;;;;;;;;;;;;;;;;;;;;
;;;;;;;;;;;;;;;;;;;;
;;;;;;;;;;;;;;;;;;;;
;;;;;;;;;;;;;;;;;;;;
;;;;;;;;;;;;;;;;;;;;
;;;;;;;;;;;;;;;;;;;;
;;;;;;;;;;;;;;;;;;;;
;;;;;;;;;;;;;;;;;;;;
;;;;;;;;;;;;;;;;;;;;
;;;;;;;;;;;;;;;;;;;;
;;;;;;;;;;;;;;;;;;;;
;;;;;;;;;;;;;;;;;;;;
;;;;;;;;;;;;;;;;;;;;
;;;;;;;;;;;;;;;;;;;;
;;;;;;;;;;;;;;;;;;;;
;;;;;;;;;;;;;;;;;;;;
;;;;;;;;;;;;;;;;;;;;
;;;;;;;;;;;;;;;;;;;;
;;;;;;;;;;;;;;;;;;;;
;;;;;;;;;;;;;;;;;;;;
;;;;;;;;;;;;;;;;;;;;
;;;;;;;;;;;;;;;;;;;;
;;;;;;;;;;;;;;;;;;;;
;;;;;;;;;;;;;;;;;;;;
;;;;;;;;;;;;;;;;;;;;
;;;;;;;;;;;;;;;;;;;;
;;;;;;;;;;;;;;;;;;;;
;;;;;;;;;;;;;;;;;;;;
;;;;;;;;;;;;;;;;;;;;
;;;;;;;;;;;;;;;;;;;;
;;;;;;;;;;;;;;;;;;;;
;;;;;;;;;;;;;;;;;;;;
;;;;;;;;;;;;;;;;;;;;
;;;;;;;;;;;;;;;;;;;;
;;;;;;;;;;;;;;;;;;;;
;;;;;;;;;;;;;;;;;;;;
;;;;;;;;;;;;;;;;;;;;
;;;;;;;;;;;;;;;;;;;;
;;;;;;;;;;;;;;;;;;;;
;;;;;;;;;;;;;;;;;;;;
;;;;;;;;;;;;;;;;;;;;
;;;;;;;;;;;;;;;;;;;;
;;;;;;;;;;;;;;;;;;;;
;;;;;;;;;;;;;;;;;;;;
;;;;;;;;;;;;;;;;;;;;
;;;;;;;;;;;;;;;;;;;;
;;;;;;;;;;;;;;;;;;;;
;;;;;;;;;;;;;;;;;;;;
;;;;;;;;;;;;;;;;;;;;
;;;;;;;;;;;;;;;;;;;;
;;;;;;;;;;;;;;;;;;;;
;;;;;;;;;;;;;;;;;;;;
;;;;;;;;;;;;;;;;;;;;
;;;;;;;;;;;;;;;;;;;;
;;;;;;;;;;;;;;;;;;;;
;;;;;;;;;;;;;;;;;;;;
;;;;;;;;;;;;;;;;;;;;
;;;;;;;;;;;;;;;;;;;;
;;;;;;;;;;;;;;;;;;;;
;;;;;;;;;;;;;;;;;;;;
;;;;;;;;;;;;;;;;;;;;
;;;;;;;;;;;;;;;;;;;;
;;;;;;;;;;;;;;;;;;;;
;;;;;;;;;;;;;;;;;;;;
;;;;;;;;;;;;;;;;;;;;
;;;;;;;;;;;;;;;;;;;;
;;;;;;;;;;;;;;;;;;;;
;;;;;;;;;;;;;;;;;;;;
;;;;;;;;;;;;;;;;;;;;
;;;;;;;;;;;;;;;;;;;;
;;;;;;;;;;;;;;;;;;;;
;;;;;;;;;;;;;;;;;;;;
;;;;;;;;;;;;;;;;;;;;
;;;;;;;;;;;;;;;;;;;;
;;;;;;;;;;;;;;;;;;;;
;;;;;;;;;;;;;;;;;;;;
;;;;;;;;;;;;;;;;;;;;
;;;;;;;;;;;;;;;;;;;;
;;;;;;;;;;;;;;;;;;;;
;;;;;;;;;;;;;;;;;;;;
;;;;;;;;;;;;;;;;;;;;
;;;;;;;;;;;;;;;;;;;;
;;;;;;;;;;;;;;;;;;;;
;;;;;;;;;;;;;;;;;;;;
;;;;;;;;;;;;;;;;;;;;
;;;;;;;;;;;;;;;;;;;;
;;;;;;;;;;;;;;;;;;;;
;;;;;;;;;;;;;;;;;;;;
;;;;;;;;;;;;;;;;;;;;
;;;;;;;;;;;;;;;;;;;;
;;;;;;;;;;;;;;;;;;;;
;;;;;;;;;;;;;;;;;;;;
;;;;;;;;;;;;;;;;;;;;
;;;;;;;;;;;;;;;;;;;;
;;;;;;;;;;;;;;;;;;;;
;;;;;;;;;;;;;;;;;;;;
;;;;;;;;;;;;;;;;;;;;
;;;;;;;;;;;;;;;;;;;;
;;;;;;;;;;;;;;;;;;;;
;;;;;;;;;;;;;;;;;;;;
;;;;;;;;;;;;;;;;;;;;
;;;;;;;;;;;;;;;;;;;;
;;;;;;;;;;;;;;;;;;;;
;;;;;;;;;;;;;;;;;;;;
;;;;;;;;;;;;;;;;;;;;
;;;;;;;;;;;;;;;;;;;;
;;;;;;;;;;;;;;;;;;;;
;;;;;;;;;;;;;;;;;;;;
;;;;;;;;;;;;;;;;;;;;
;;;;;;;;;;;;;;;;;;;;
;;;;;;;;;;;;;;;;;;;;
;;;;;;;;;;;;;;;;;;;;
;;;;;;;;;;;;;;;;;;;;
;;;;;;;;;;;;;;;;;;;;
;;;;;;;;;;;;;;;;;;;;
;;;;;;;;;;;;;;;;;;;;
;;;;;;;;;;;;;;;;;;;;
;;;;;;;;;;;;;;;;;;;;
;;;;;;;;;;;;;;;;;;;;
;;;;;;;;;;;;;;;;;;;;
;;;;;;;;;;;;;;;;;;;;
;;;;;;;;;;;;;;;;;;;;
;;;;;;;;;;;;;;;;;;;;
;;;;;;;;;;;;;;;;;;;;
;;;;;;;;;;;;;;;;;;;;
;;;;;;;;;;;;;;;;;;;;
;;;;;;;;;;;;;;;;;;;;
;;;;;;;;;;;;;;;;;;;;
;;;;;;;;;;;;;;;;;;;;
;;;;;;;;;;;;;;;;;;;;
;;;;;;;;;;;;;;;;;;;;
;;;;;;;;;;;;;;;;;;;;
;;;;;;;;;;;;;;;;;;;;
;;;;;;;;;;;;;;;;;;;;
;;;;;;;;;;;;;;;;;;;;
;;;;;;;;;;;;;;;;;;;;
;;;;;;;;;;;;;;;;;;;;
;;;;;;;;;;;;;;;;;;;;
;;;;;;;;;;;;;;;;;;;;
;;;;;;;;;;;;;;;;;;;;
;;;;;;;;;;;;;;;;;;;;
;;;;;;;;;;;;;;;;;;;;
;;;;;;;;;;;;;;;;;;;;
;;;;;;;;;;;;;;;;;;;;
;;;;;;;;;;;;;;;;;;;;
;;;;;;;;;;;;;;;;;;;;
;;;;;;;;;;;;;;;;;;;;
;;;;;;;;;;;;;;;;;;;;
;;;;;;;;;;;;;;;;;;;;
;;;;;;;;;;;;;;;;;;;;
;;;;;;;;;;;;;;;;;;;;
;;;;;;;;;;;;;;;;;;;;
;;;;;;;;;;;;;;;;;;;;
;;;;;;;;;;;;;;;;;;;;
;;;;;;;;;;;;;;;;;;;;
;;;;;;;;;;;;;;;;;;;;
;;;;;;;;;;;;;;;;;;;;
;;;;;;;;;;;;;;;;;;;;
;;;;;;;;;;;;;;;;;;;;
;;;;;;;;;;;;;;;;;;;;
;;;;;;;;;;;;;;;;;;;;
;;;;;;;;;;;;;;;;;;;;
;;;;;;;;;;;;;;;;;;;;
;;;;;;;;;;;;;;;;;;;;
;;;;;;;;;;;;;;;;;;;;
;;;;;;;;;;;;;;;;;;;;
;;;;;;;;;;;;;;;;;;;;
;;;;;;;;;;;;;;;;;;;;
;;;;;;;;;;;;;;;;;;;;
;;;;;;;;;;;;;;;;;;;;
;;;;;;;;;;;;;;;;;;;;
;;;;;;;;;;;;;;;;;;;;
;;;;;;;;;;;;;;;;;;;;
;;;;;;;;;;;;;;;;;;;;
;;;;;;;;;;;;;;;;;;;;
;;;;;;;;;;;;;;;;;;;;
;;;;;;;;;;;;;;;;;;;;
;;;;;;;;;;;;;;;;;;;;
;;;;;;;;;;;;;;;;;;;;
;;;;;;;;;;;;;;;;;;;;
;;;;;;;;;;;;;;;;;;;;
;;;;;;;;;;;;;;;;;;;;
;;;;;;;;;;;;;;;;;;;;
;;;;;;;;;;;;;;;;;;;;
;;;;;;;;;;;;;;;;;;;;
;;;;;;;;;;;;;;;;;;;;
;;;;;;;;;;;;;;;;;;;;
;;;;;;;;;;;;;;;;;;;;
;;;;;;;;;;;;;;;;;;;;
;;;;;;;;;;;;;;;;;;;;
;;;;;;;;;;;;;;;;;;;;
;;;;;;;;;;;;;;;;;;;;
;;;;;;;;;;;;;;;;;;;;
;;;;;;;;;;;;;;;;;;;;
;;;;;;;;;;;;;;;;;;;;
;;;;;;;;;;;;;;;;;;;;
;;;;;;;;;;;;;;;;;;;;
;;;;;;;;;;;;;;;;;;;;
;;;;;;;;;;;;;;;;;;;;
;;;;;;;;;;;;;;;;;;;;
;;;;;;;;;;;;;;;;;;;;
;;;;;;;;;;;;;;;;;;;;
;;;;;;;;;;;;;;;;;;;;
;;;;;;;;;;;;;;;;;;;;
;;;;;;;;;;;;;;;;;;;;
;;;;;;;;;;;;;;;;;;;;
;;;;;;;;;;;;;;;;;;;;
;;;;;;;;;;;;;;;;;;;;
;;;;;;;;;;;;;;;;;;;;
;;;;;;;;;;;;;;;;;;;;
;;;;;;;;;;;;;;;;;;;;
;;;;;;;;;;;;;;;;;;;;
;;;;;;;;;;;;;;;;;;;;
;;;;;;;;;;;;;;;;;;;;
;;;;;;;;;;;;;;;;;;;;
;;;;;;;;;;;;;;;;;;;;
;;;;;;;;;;;;;;;;;;;;
;;;;;;;;;;;;;;;;;;;;
;;;;;;;;;;;;;;;;;;;;
;;;;;;;;;;;;;;;;;;;;
;;;;;;;;;;;;;;;;;;;;
;;;;;;;;;;;;;;;;;;;;
;;;;;;;;;;;;;;;;;;;;
;;;;;;;;;;;;;;;;;;;;
;;;;;;;;;;;;;;;;;;;;
;;;;;;;;;;;;;;;;;;;;
;;;;;;;;;;;;;;;;;;;;
;;;;;;;;;;;;;;;;;;;;
;;;;;;;;;;;;;;;;;;;;
;;;;;;;;;;;;;;;;;;;;
;;;;;;;;;;;;;;;;;;;;
;;;;;;;;;;;;;;;;;;;;
;;;;;;;;;;;;;;;;;;;;
;;;;;;;;;;;;;;;;;;;;
;;;;;;;;;;;;;;;;;;;;
;;;;;;;;;;;;;;;;;;;;
;;;;;;;;;;;;;;;;;;;;
;;;;;;;;;;;;;;;;;;;;
;;;;;;;;;;;;;;;;;;;;
;;;;;;;;;;;;;;;;;;;;
;;;;;;;;;;;;;;;;;;;;
;;;;;;;;;;;;;;;;;;;;
;;;;;;;;;;;;;;;;;;;;
;;;;;;;;;;;;;;;;;;;;
;;;;;;;;;;;;;;;;;;;;
;;;;;;;;;;;;;;;;;;;;
;;;;;;;;;;;;;;;;;;;;
;;;;;;;;;;;;;;;;;;;;
;;;;;;;;;;;;;;;;;;;;
;;;;;;;;;;;;;;;;;;;;
;;;;;;;;;;;;;;;;;;;;
;;;;;;;;;;;;;;;;;;;;
;;;;;;;;;;;;;;;;;;;;
;;;;;;;;;;;;;;;;;;;;
;;;;;;;;;;;;;;;;;;;;
;;;;;;;;;;;;;;;;;;;;
;;;;;;;;;;;;;;;;;;;;
;;;;;;;;;;;;;;;;;;;;
;;;;;;;;;;;;;;;;;;;;
;;;;;;;;;;;;;;;;;;;;
;;;;;;;;;;;;;;;;;;;;
;;;;;;;;;;;;;;;;;;;;
;;;;;;;;;;;;;;;;;;;;
;;;;;;;;;;;;;;;;;;;;
;;;;;;;;;;;;;;;;;;;;
;;;;;;;;;;;;;;;;;;;;
;;;;;;;;;;;;;;;;;;;;
;;;;;;;;;;;;;;;;;;;;
;;;;;;;;;;;;;;;;;;;;
;;;;;;;;;;;;;;;;;;;;
;;;;;;;;;;;;;;;;;;;;
;;;;;;;;;;;;;;;;;;;;
;;;;;;;;;;;;;;;;;;;;
;;;;;;;;;;;;;;;;;;;;
;;;;;;;;;;;;;;;;;;;;
;;;;;;;;;;;;;;;;;;;;
;;;;;;;;;;;;;;;;;;;;
;;;;;;;;;;;;;;;;;;;;
;;;;;;;;;;;;;;;;;;;;
;;;;;;;;;;;;;;;;;;;;
;;;;;;;;;;;;;;;;;;;;
;;;;;;;;;;;;;;;;;;;;
;;;;;;;;;;;;;;;;;;;;
;;;;;;;;;;;;;;;;;;;;
;;;;;;;;;;;;;;;;;;;;
;;;;;;;;;;;;;;;;;;;;
;;;;;;;;;;;;;;;;;;;;
;;;;;;;;;;;;;;;;;;;;
;;;;;;;;;;;;;;;;;;;;
;;;;;;;;;;;;;;;;;;;;
;;;;;;;;;;;;;;;;;;;;
;;;;;;;;;;;;;;;;;;;;
;;;;;;;;;;;;;;;;;;;;
;;;;;;;;;;;;;;;;;;;;
;;;;;;;;;;;;;;;;;;;;
;;;;;;;;;;;;;;;;;;;;
;;;;;;;;;;;;;;;;;;;;
;;;;;;;;;;;;;;;;;;;;
;;;;;;;;;;;;;;;;;;;;
;;;;;;;;;;;;;;;;;;;;
;;;;;;;;;;;;;;;;;;;;
;;;;;;;;;;;;;;;;;;;;
;;;;;;;;;;;;;;;;;;;;
;;;;;;;;;;;;;;;;;;;;
;;;;;;;;;;;;;;;;;;;;
;;;;;;;;;;;;;;;;;;;;
;;;;;;;;;;;;;;;;;;;;
;;;;;;;;;;;;;;;;;;;;
;;;;;;;;;;;;;;;;;;;;
;;;;;;;;;;;;;;;;;;;;
;;;;;;;;;;;;;;;;;;;;
;;;;;;;;;;;;;;;;;;;;
;;;;;;;;;;;;;;;;;;;;
;;;;;;;;;;;;;;;;;;;;
;;;;;;;;;;;;;;;;;;;;
;;;;;;;;;;;;;;;;;;;;
;;;;;;;;;;;;;;;;;;;;
;;;;;;;;;;;;;;;;;;;;
;;;;;;;;;;;;;;;;;;;;
;;;;;;;;;;;;;;;;;;;;
;;;;;;;;;;;;;;;;;;;;
;;;;;;;;;;;;;;;;;;;;
;;;;;;;;;;;;;;;;;;;;
;;;;;;;;;;;;;;;;;;;;
;;;;;;;;;;;;;;;;;;;;
;;;;;;;;;;;;;;;;;;;;
;;;;;;;;;;;;;;;;;;;;
;;;;;;;;;;;;;;;;;;;;
;;;;;;;;;;;;;;;;;;;;
;;;;;;;;;;;;;;;;;;;;
;;;;;;;;;;;;;;;;;;;;
;;;;;;;;;;;;;;;;;;;;
;;;;;;;;;;;;;;;;;;;;
;;;;;;;;;;;;;;;;;;;;
;;;;;;;;;;;;;;;;;;;;
;;;;;;;;;;;;;;;;;;;;
;;;;;;;;;;;;;;;;;;;;
;;;;;;;;;;;;;;;;;;;;
;;;;;;;;;;;;;;;;;;;;
;;;;;;;;;;;;;;;;;;;;
;;;;;;;;;;;;;;;;;;;;
;;;;;;;;;;;;;;;;;;;;
;;;;;;;;;;;;;;;;;;;;
;;;;;;;;;;;;;;;;;;;;
;;;;;;;;;;;;;;;;;;;;
;;;;;;;;;;;;;;;;;;;;
;;;;;;;;;;;;;;;;;;;;
;;;;;;;;;;;;;;;;;;;;
;;;;;;;;;;;;;;;;;;;;
;;;;;;;;;;;;;;;;;;;;
;;;;;;;;;;;;;;;;;;;;
;;;;;;;;;;;;;;;;;;;;
;;;;;;;;;;;;;;;;;;;;
;;;;;;;;;;;;;;;;;;;;
;;;;;;;;;;;;;;;;;;;;
;;;;;;;;;;;;;;;;;;;;
;;;;;;;;;;;;;;;;;;;;
;;;;;;;;;;;;;;;;;;;;
;;;;;;;;;;;;;;;;;;;;
;;;;;;;;;;;;;;;;;;;;
;;;;;;;;;;;;;;;;;;;;
;;;;;;;;;;;;;;;;;;;;
;;;;;;;;;;;;;;;;;;;;
;;;;;;;;;;;;;;;;;;;;
;;;;;;;;;;;;;;;;;;;;
;;;;;;;;;;;;;;;;;;;;
;;;;;;;;;;;;;;;;;;;;
;;;;;;;;;;;;;;;;;;;;
;;;;;;;;;;;;;;;;;;;;
;;;;;;;;;;;;;;;;;;;;
;;;;;;;;;;;;;;;;;;;;
;;;;;;;;;;;;;;;;;;;;
;;;;;;;;;;;;;;;;;;;;
;;;;;;;;;;;;;;;;;;;;
;;;;;;;;;;;;;;;;;;;;
;;;;;;;;;;;;;;;;;;;;
;;;;;;;;;;;;;;;;;;;;
;;;;;;;;;;;;;;;;;;;;
;;;;;;;;;;;;;;;;;;;;
;;;;;;;;;;;;;;;;;;;;
;;;;;;;;;;;;;;;;;;;;
;;;;;;;;;;;;;;;;;;;;
;;;;;;;;;;;;;;;;;;;;
;;;;;;;;;;;;;;;;;;;;
;;;;;;;;;;;;;;;;;;;;
;;;;;;;;;;;;;;;;;;;;
;;;;;;;;;;;;;;;;;;;;
;;;;;;;;;;;;;;;;;;;;
;;;;;;;;;;;;;;;;;;;;
;;;;;;;;;;;;;;;;;;;;
;;;;;;;;;;;;;;;;;;;;
;;;;;;;;;;;;;;;;;;;;
;;;;;;;;;;;;;;;;;;;;
;;;;;;;;;;;;;;;;;;;;
;;;;;;;;;;;;;;;;;;;;
;;;;;;;;;;;;;;;;;;;;
;;;;;;;;;;;;;;;;;;;;
;;;;;;;;;;;;;;;;;;;;
;;;;;;;;;;;;;;;;;;;;
;;;;;;;;;;;;;;;;;;;;
;;;;;;;;;;;;;;;;;;;;
;;;;;;;;;;;;;;;;;;;;
;;;;;;;;;;;;;;;;;;;;
;;;;;;;;;;;;;;;;;;;;
;;;;;;;;;;;;;;;;;;;;
;;;;;;;;;;;;;;;;;;;;
;;;;;;;;;;;;;;;;;;;;
;;;;;;;;;;;;;;;;;;;;
;;;;;;;;;;;;;;;;;;;;
;;;;;;;;;;;;;;;;;;;;
;;;;;;;;;;;;;;;;;;;;
;;;;;;;;;;;;;;;;;;;;
;;;;;;;;;;;;;;;;;;;;
;;;;;;;;;;;;;;;;;;;;
;;;;;;;;;;;;;;;;;;;;
;;;;;;;;;;;;;;;;;;;;
;;;;;;;;;;;;;;;;;;;;
;;;;;;;;;;;;;;;;;;;;
;;;;;;;;;;;;;;;;;;;;
;;;;;;;;;;;;;;;;;;;;
;;;;;;;;;;;;;;;;;;;;
;;;;;;;;;;;;;;;;;;;;
;;;;;;;;;;;;;;;;;;;;
;;;;;;;;;;;;;;;;;;;;
;;;;;;;;;;;;;;;;;;;;
;;;;;;;;;;;;;;;;;;;;
;;;;;;;;;;;;;;;;;;;;
;;;;;;;;;;;;;;;;;;;;
;;;;;;;;;;;;;;;;;;;;
;;;;;;;;;;;;;;;;;;;;
;;;;;;;;;;;;;;;;;;;;
;;;;;;;;;;;;;;;;;;;;
;;;;;;;;;;;;;;;;;;;;
;;;;;;;;;;;;;;;;;;;;
;;;;;;;;;;;;;;;;;;;;
;;;;;;;;;;;;;;;;;;;;
;;;;;;;;;;;;;;;;;;;;
;;;;;;;;;;;;;;;;;;;;
;;;;;;;;;;;;;;;;;;;;
;;;;;;;;;;;;;;;;;;;;
;;;;;;;;;;;;;;;;;;;;
;;;;;;;;;;;;;;;;;;;;
;;;;;;;;;;;;;;;;;;;;
;;;;;;;;;;;;;;;;;;;;
;;;;;;;;;;;;;;;;;;;;
;;;;;;;;;;;;;;;;;;;;
;;;;;;;;;;;;;;;;;;;;
;;;;;;;;;;;;;;;;;;;;
;;;;;;;;;;;;;;;;;;;;
;;;;;;;;;;;;;;;;;;;;
;;;;;;;;;;;;;;;;;;;;
;;;;;;;;;;;;;;;;;;;;
;;;;;;;;;;;;;;;;;;;;
;;;;;;;;;;;;;;;;;;;;
;;;;;;;;;;;;;;;;;;;;
;;;;;;;;;;;;;;;;;;;;
;;;;;;;;;;;;;;;;;;;;
;;;;;;;;;;;;;;;;;;;;
;;;;;;;;;;;;;;;;;;;;
;;;;;;;;;;;;;;;;;;;;
;;;;;;;;;;;;;;;;;;;;
;;;;;;;;;;;;;;;;;;;;
;;;;;;;;;;;;;;;;;;;;
;;;;;;;;;;;;;;;;;;;;
;;;;;;;;;;;;;;;;;;;;
;;;;;;;;;;;;;;;;;;;;
;;;;;;;;;;;;;;;;;;;;
;;;;;;;;;;;;;;;;;;;;
;;;;;;;;;;;;;;;;;;;;
;;;;;;;;;;;;;;;;;;;;
;;;;;;;;;;;;;;;;;;;;
;;;;;;;;;;;;;;;;;;;;
;;;;;;;;;;;;;;;;;;;;
;;;;;;;;;;;;;;;;;;;;
;;;;;;;;;;;;;;;;;;;;
;;;;;;;;;;;;;;;;;;;;
;;;;;;;;;;;;;;;;;;;;
;;;;;;;;;;;;;;;;;;;;
;;;;;;;;;;;;;;;;;;;;
;;;;;;;;;;;;;;;;;;;;
;;;;;;;;;;;;;;;;;;;;
;;;;;;;;;;;;;;;;;;;;
;;;;;;;;;;;;;;;;;;;;
;;;;;;;;;;;;;;;;;;;;
;;;;;;;;;;;;;;;;;;;;
;;;;;;;;;;;;;;;;;;;;
;;;;;;;;;;;;;;;;;;;;
;;;;;;;;;;;;;;;;;;;;
;;;;;;;;;;;;;;;;;;;;
;;;;;;;;;;;;;;;;;;;;
;;;;;;;;;;;;;;;;;;;;
;;;;;;;;;;;;;;;;;;;;
;;;;;;;;;;;;;;;;;;;;
;;;;;;;;;;;;;;;;;;;;
;;;;;;;;;;;;;;;;;;;;
;;;;;;;;;;;;;;;;;;;;
;;;;;;;;;;;;;;;;;;;;
;;;;;;;;;;;;;;;;;;;;
;;;;;;;;;;;;;;;;;;;;
;;;;;;;;;;;;;;;;;;;;
;;;;;;;;;;;;;;;;;;;;
;;;;;;;;;;;;;;;;;;;;
;;;;;;;;;;;;;;;;;;;;
;;;;;;;;;;;;;;;;;;;;
;;;;;;;;;;;;;;;;;;;;
;;;;;;;;;;;;;;;;;;;;
;;;;;;;;;;;;;;;;;;;;
;;;;;;;;;;;;;;;;;;;;
;;;;;;;;;;;;;;;;;;;;
;;;;;;;;;;;;;;;;;;;;
;;;;;;;;;;;;;;;;;;;;
;;;;;;;;;;;;;;;;;;;;
;;;;;;;;;;;;;;;;;;;;
;;;;;;;;;;;;;;;;;;;;
;;;;;;;;;;;;;;;;;;;;
;;;;;;;;;;;;;;;;;;;;
;;;;;;;;;;;;;;;;;;;;
;;;;;;;;;;;;;;;;;;;;
;;;;;;;;;;;;;;;;;;;;
;;;;;;;;;;;;;;;;;;;;
;;;;;;;;;;;;;;;;;;;;
;;;;;;;;;;;;;;;;;;;;
;;;;;;;;;;;;;;;;;;;;
;;;;;;;;;;;;;;;;;;;;
;;;;;;;;;;;;;;;;;;;;
;;;;;;;;;;;;;;;;;;;;
;;;;;;;;;;;;;;;;;;;;
;;;;;;;;;;;;;;;;;;;;
;;;;;;;;;;;;;;;;;;;;
;;;;;;;;;;;;;;;;;;;;
;;;;;;;;;;;;;;;;;;;;
;;;;;;;;;;;;;;;;;;;;
;;;;;;;;;;;;;;;;;;;;
;;;;;;;;;;;;;;;;;;;;
;;;;;;;;;;;;;;;;;;;;
;;;;;;;;;;;;;;;;;;;;
;;;;;;;;;;;;;;;;;;;;
;;;;;;;;;;;;;;;;;;;;
;;;;;;;;;;;;;;;;;;;;
;;;;;;;;;;;;;;;;;;;;
;;;;;;;;;;;;;;;;;;;;
;;;;;;;;;;;;;;;;;;;;
;;;;;;;;;;;;;;;;;;;;
;;;;;;;;;;;;;;;;;;;;
;;;;;;;;;;;;;;;;;;;;
;;;;;;;;;;;;;;;;;;;;
;;;;;;;;;;;;;;;;;;;;
;;;;;;;;;;;;;;;;;;;;
;;;;;;;;;;;;;;;;;;;;
;;;;;;;;;;;;;;;;;;;;
;;;;;;;;;;;;;;;;;;;;
;;;;;;;;;;;;;;;;;;;;
;;;;;;;;;;;;;;;;;;;;
;;;;;;;;;;;;;;;;;;;;
;;;;;;;;;;;;;;;;;;;;
;;;;;;;;;;;;;;;;;;;;
;;;;;;;;;;;;;;;;;;;;